PERSISTENT,TEMPORARY,acc,accuracy,average_response_time,avg_rt,background,browser_codename,browser_name,browser_version,canvas_backend,clock_backend,closed,color1,color2,color3,color4,color_backend,correct,correct_in_a_row,correct_press_abcd,correct_response,count_block_loop,count_card_display,count_correct_feedback,count_experiment,count_goodbye,count_incorrect_feedback,count_init_matching_rule,count_instructions,count_logger,count_new_1_form_text_display,count_new_2_sketchpad,count_new_form_consent,count_new_inline_javascript,count_new_sketchpad,count_osweb,count_press_abcd,count_select_response_card,count_set_correct_response,count_trial_sequence,count_update_matching_rule,credentialless,crossOriginIsolated,date_startdate,date_startdateUTC,date_starttime,datetime,defaultStatus,defaultstatus,description,devicePixelRatio,disable_garbage_collection,experiment_debug,experiment_parameters,experiment_path,experiment_pilot,experiment_taskname,experiment_taskversion,font_bold,font_family,font_italic,font_size,font_underline,foreground,form_clicks,fullscreen,height,innerHeight,innerWidth,isBrowser,isSecureContext,jatosStudyResultId,jatosVersion,jatos_uuid,keyboard_backend,length,matching_rule,mouse_backend,name,number1,number2,number3,number4,offscreenBuffering,opensesame_codename,opensesame_version,origin,originAgentCluster,outerHeight,outerWidth,overlap1,overlap2,overlap3,overlap4,pageXOffset,pageYOffset,penwidth,repeat_cycle,response,response_color,response_new_2_sketchpad,response_new_sketchpad,response_number,response_press_abcd,response_shape,response_time,response_time_new_2_sketchpad,response_time_new_sketchpad,response_time_press_abcd,round_decimals,sampler_backend,screenLeft,screenTop,screenX,screenY,screen_availableHeight,screen_availableWidth,screen_colorDepth,screen_height,screen_pixelDepth,screen_screenX,screen_screenY,screen_width,scrollX,scrollY,sessionid,shape1,shape2,shape3,shape4,sound_buf_size,sound_channels,sound_freq,sound_sample_size,start,status,subject_nr,subject_parity,system_os,time_block_loop,time_card_display,time_correct_feedback,time_incorrect_feedback,time_init_matching_rule,time_logger,time_new_2_sketchpad,time_new_sketchpad,time_press_abcd,time_select_response_card,time_set_correct_response,time_update_matching_rule,title,total_correct,total_response_time,total_responses,width
,,100,100,2013,2013,#3d3846,Mozilla,Netscape,"5.0 (Macintosh; Intel Mac OS X 10_15_7) AppleWebKit/605.1.15 (KHTML, like Gecko) Version/16.3 Safari/605.1.15",osweb,osweb,0,blue,red,green,yellow,osweb,1,1,1,a,0,0,0,0,0,0,0,0,0,0,0,0,0,0,0,0,0,0,0,0,,0,19-05-24,19-05-24,21:47:07,Sun May 19 2024 21:47:07 GMT+0200 (Mitteleuropäische Sommerzeit),,,The main experiment item,2,False,0,0,C:\Users\maalt\OneDrive - Universität Wien\Dokumente\Uni\Psychologie\8. Semester\Bachelorarbeit\Experimente\Winsconsin\osweb-version,0,0,0,False,mono,False,18,no,white,no,no,768,724,1440,1,1,518133,3.8.6,a47ee561-4ea2-80d4-f47b-548d9201c9ec,osweb,0,color,osweb,,4,3,2,1,1,osweb,2.1.0,https://jatos.mindprobe.eu,,804,1440,1,1,1,0,0,0,1,0,a,blue,c,c,2,a,triangle,2013,17528,9310,2013,2,osweb,0,25,0,25,804,1440,24,900,24,0,25,1440,0,0,1716148075821,star,triangle,circle,cross,1024,2,48000,-16,experiment,,1,odd,MacIntel,42,66340,68366,,66302,68881,36681,54216,66341,66331,66331,68880,Wisconsin Card Sorting Test,1,2013,1,1024
,,100,100,1883,1883,#3d3846,Mozilla,Netscape,"5.0 (Macintosh; Intel Mac OS X 10_15_7) AppleWebKit/605.1.15 (KHTML, like Gecko) Version/16.3 Safari/605.1.15",osweb,osweb,0,yellow,green,blue,red,osweb,1,2,1,d,0,1,1,0,0,1,0,0,1,0,0,0,0,0,0,1,1,1,1,1,,0,19-05-24,19-05-24,21:47:07,Sun May 19 2024 21:47:07 GMT+0200 (Mitteleuropäische Sommerzeit),,,The main experiment item,2,False,0,0,C:\Users\maalt\OneDrive - Universität Wien\Dokumente\Uni\Psychologie\8. Semester\Bachelorarbeit\Experimente\Winsconsin\osweb-version,0,0,0,False,mono,False,18,no,white,no,no,768,724,1440,1,1,518133,3.8.6,a47ee561-4ea2-80d4-f47b-548d9201c9ec,osweb,0,color,osweb,,4,3,1,2,1,osweb,2.1.0,https://jatos.mindprobe.eu,,804,1440,1,1,0,1,0,0,1,0,d,red,c,c,3,d,cross,1753,17528,9310,1753,2,osweb,0,25,0,25,804,1440,24,900,24,0,25,1440,0,0,1716148075821,cross,circle,triangle,star,1024,2,48000,-16,experiment,,1,odd,MacIntel,42,68919,70682,,66302,71196,36681,54216,68919,68910,68910,71195,Wisconsin Card Sorting Test,2,3766,2,1024
,,100,100,1692,1692,#3d3846,Mozilla,Netscape,"5.0 (Macintosh; Intel Mac OS X 10_15_7) AppleWebKit/605.1.15 (KHTML, like Gecko) Version/16.3 Safari/605.1.15",osweb,osweb,0,red,blue,yellow,green,osweb,1,3,1,d,0,2,2,0,0,2,0,0,2,0,0,0,0,0,0,2,2,2,2,2,,0,19-05-24,19-05-24,21:47:07,Sun May 19 2024 21:47:07 GMT+0200 (Mitteleuropäische Sommerzeit),,,The main experiment item,2,False,0,0,C:\Users\maalt\OneDrive - Universität Wien\Dokumente\Uni\Psychologie\8. Semester\Bachelorarbeit\Experimente\Winsconsin\osweb-version,0,0,0,False,mono,False,18,no,white,no,no,768,724,1440,1,1,518133,3.8.6,a47ee561-4ea2-80d4-f47b-548d9201c9ec,osweb,0,color,osweb,,2,4,3,1,1,osweb,2.1.0,https://jatos.mindprobe.eu,,804,1440,1,0,1,1,0,0,1,0,d,green,c,c,3,d,circle,1311,17528,9310,1311,2,osweb,0,25,0,25,804,1440,24,900,24,0,25,1440,0,0,1716148075821,circle,cross,star,triangle,1024,2,48000,-16,experiment,,1,odd,MacIntel,42,71229,72547,,66302,73063,36681,54216,71229,71220,71220,73063,Wisconsin Card Sorting Test,3,5077,3,1024
,,100,100,1554,1554,#3d3846,Mozilla,Netscape,"5.0 (Macintosh; Intel Mac OS X 10_15_7) AppleWebKit/605.1.15 (KHTML, like Gecko) Version/16.3 Safari/605.1.15",osweb,osweb,0,blue,red,yellow,green,osweb,1,4,1,a,0,3,3,0,0,3,0,0,3,0,0,0,0,0,0,3,3,3,3,3,,0,19-05-24,19-05-24,21:47:07,Sun May 19 2024 21:47:07 GMT+0200 (Mitteleuropäische Sommerzeit),,,The main experiment item,2,False,0,0,C:\Users\maalt\OneDrive - Universität Wien\Dokumente\Uni\Psychologie\8. Semester\Bachelorarbeit\Experimente\Winsconsin\osweb-version,0,0,0,False,mono,False,18,no,white,no,no,768,724,1440,1,1,518133,3.8.6,a47ee561-4ea2-80d4-f47b-548d9201c9ec,osweb,0,color,osweb,,2,4,1,3,1,osweb,2.1.0,https://jatos.mindprobe.eu,,804,1440,1,1,1,0,0,0,1,0,a,blue,c,c,4,a,triangle,1137,17528,9310,1137,2,osweb,0,25,0,25,804,1440,24,900,24,0,25,1440,0,0,1716148075821,cross,star,triangle,circle,1024,2,48000,-16,experiment,,1,odd,MacIntel,42,73103,74251,,66302,74767,36681,54216,73103,73094,73094,74767,Wisconsin Card Sorting Test,4,6214,4,1024
,,100,100,1522,1522,#3d3846,Mozilla,Netscape,"5.0 (Macintosh; Intel Mac OS X 10_15_7) AppleWebKit/605.1.15 (KHTML, like Gecko) Version/16.3 Safari/605.1.15",osweb,osweb,0,red,green,yellow,blue,osweb,1,0,1,b,0,4,4,0,0,4,0,0,4,0,0,0,0,0,0,4,4,4,4,4,,0,19-05-24,19-05-24,21:47:07,Sun May 19 2024 21:47:07 GMT+0200 (Mitteleuropäische Sommerzeit),,,The main experiment item,2,False,0,0,C:\Users\maalt\OneDrive - Universität Wien\Dokumente\Uni\Psychologie\8. Semester\Bachelorarbeit\Experimente\Winsconsin\osweb-version,0,0,0,False,mono,False,18,no,white,no,no,768,724,1440,1,1,518133,3.8.6,a47ee561-4ea2-80d4-f47b-548d9201c9ec,osweb,0,shape,osweb,,1,4,3,2,1,osweb,2.1.0,https://jatos.mindprobe.eu,,804,1440,1,1,1,0,0,0,1,0,b,green,c,c,3,b,star,1396,17528,9310,1396,2,osweb,0,25,0,25,804,1440,24,900,24,0,25,1440,0,0,1716148075821,star,circle,triangle,cross,1024,2,48000,-16,experiment,,1,odd,MacIntel,42,74800,76197,,66302,76713,36681,54216,74800,74791,74791,76713,Wisconsin Card Sorting Test,5,7610,5,1024
,,83,83,1491,1491,#3d3846,Mozilla,Netscape,"5.0 (Macintosh; Intel Mac OS X 10_15_7) AppleWebKit/605.1.15 (KHTML, like Gecko) Version/16.3 Safari/605.1.15",osweb,osweb,0,red,yellow,green,blue,osweb,0,0,0,c,0,5,5,0,0,5,0,0,5,0,0,0,0,0,0,5,5,5,5,5,,0,19-05-24,19-05-24,21:47:07,Sun May 19 2024 21:47:07 GMT+0200 (Mitteleuropäische Sommerzeit),,,The main experiment item,2,False,0,0,C:\Users\maalt\OneDrive - Universität Wien\Dokumente\Uni\Psychologie\8. Semester\Bachelorarbeit\Experimente\Winsconsin\osweb-version,0,0,0,False,mono,False,18,no,white,no,no,768,724,1440,1,1,518133,3.8.6,a47ee561-4ea2-80d4-f47b-548d9201c9ec,osweb,0,shape,osweb,,1,4,3,2,1,osweb,2.1.0,https://jatos.mindprobe.eu,,804,1440,0,1,1,1,0,0,1,0,b,yellow,c,c,2,b,star,1337,17528,9310,1337,2,osweb,0,25,0,25,804,1440,24,900,24,0,25,1440,0,0,1716148075821,triangle,cross,star,circle,1024,2,48000,-16,experiment,,1,odd,MacIntel,42,76741,76197,78083,66302,78596,36681,54216,76741,76733,76733,78596,Wisconsin Card Sorting Test,5,8947,6,1024
,,86,86,1570,1570,#3d3846,Mozilla,Netscape,"5.0 (Macintosh; Intel Mac OS X 10_15_7) AppleWebKit/605.1.15 (KHTML, like Gecko) Version/16.3 Safari/605.1.15",osweb,osweb,0,blue,yellow,green,red,osweb,1,1,1,d,0,6,6,0,0,6,0,0,6,0,0,0,0,0,0,6,6,6,6,6,,0,19-05-24,19-05-24,21:47:07,Sun May 19 2024 21:47:07 GMT+0200 (Mitteleuropäische Sommerzeit),,,The main experiment item,2,False,0,0,C:\Users\maalt\OneDrive - Universität Wien\Dokumente\Uni\Psychologie\8. Semester\Bachelorarbeit\Experimente\Winsconsin\osweb-version,0,0,0,False,mono,False,18,no,white,no,no,768,724,1440,1,1,518133,3.8.6,a47ee561-4ea2-80d4-f47b-548d9201c9ec,osweb,0,shape,osweb,,1,4,3,2,1,osweb,2.1.0,https://jatos.mindprobe.eu,,804,1440,0,1,1,1,0,0,1,0,d,yellow,c,c,3,d,triangle,2046,17528,9310,2046,2,osweb,0,25,0,25,804,1440,24,900,24,0,25,1440,0,0,1716148075821,circle,star,cross,triangle,1024,2,48000,-16,experiment,,1,odd,MacIntel,42,78629,80683,78083,66302,81197,36681,54216,78630,78621,78621,81197,Wisconsin Card Sorting Test,6,10993,7,1024
,,88,88,1652,1652,#3d3846,Mozilla,Netscape,"5.0 (Macintosh; Intel Mac OS X 10_15_7) AppleWebKit/605.1.15 (KHTML, like Gecko) Version/16.3 Safari/605.1.15",osweb,osweb,0,green,blue,yellow,red,osweb,1,2,1,b,0,7,7,0,0,7,0,0,7,0,0,0,0,0,0,7,7,7,7,7,,0,19-05-24,19-05-24,21:47:07,Sun May 19 2024 21:47:07 GMT+0200 (Mitteleuropäische Sommerzeit),,,The main experiment item,2,False,0,0,C:\Users\maalt\OneDrive - Universität Wien\Dokumente\Uni\Psychologie\8. Semester\Bachelorarbeit\Experimente\Winsconsin\osweb-version,0,0,0,False,mono,False,18,no,white,no,no,768,724,1440,1,1,518133,3.8.6,a47ee561-4ea2-80d4-f47b-548d9201c9ec,osweb,0,shape,osweb,,1,3,4,2,1,osweb,2.1.0,https://jatos.mindprobe.eu,,804,1440,1,1,0,1,0,0,1,0,b,green,c,c,2,b,cross,2223,17528,9310,2223,2,osweb,0,25,0,25,804,1440,24,900,24,0,25,1440,0,0,1716148075821,triangle,cross,circle,star,1024,2,48000,-16,experiment,,1,odd,MacIntel,42,81229,83466,78083,66302,83980,36681,54216,81229,81220,81220,83980,Wisconsin Card Sorting Test,7,13216,8,1024
,,89,89,1643,1643,#3d3846,Mozilla,Netscape,"5.0 (Macintosh; Intel Mac OS X 10_15_7) AppleWebKit/605.1.15 (KHTML, like Gecko) Version/16.3 Safari/605.1.15",osweb,osweb,0,blue,yellow,green,red,osweb,1,3,1,a,0,8,8,0,0,8,0,0,8,0,0,0,0,0,0,8,8,8,8,8,,0,19-05-24,19-05-24,21:47:07,Sun May 19 2024 21:47:07 GMT+0200 (Mitteleuropäische Sommerzeit),,,The main experiment item,2,False,0,0,C:\Users\maalt\OneDrive - Universität Wien\Dokumente\Uni\Psychologie\8. Semester\Bachelorarbeit\Experimente\Winsconsin\osweb-version,0,0,0,False,mono,False,18,no,white,no,no,768,724,1440,1,1,518133,3.8.6,a47ee561-4ea2-80d4-f47b-548d9201c9ec,osweb,0,shape,osweb,,4,3,2,1,1,osweb,2.1.0,https://jatos.mindprobe.eu,,804,1440,1,1,1,0,0,0,1,0,a,green,c,c,3,a,cross,1569,17528,9310,1569,2,osweb,0,25,0,25,804,1440,24,900,24,0,25,1440,0,0,1716148075821,cross,star,circle,triangle,1024,2,48000,-16,experiment,,1,odd,MacIntel,42,84004,85582,78083,66302,86096,36681,54216,84004,83996,83996,86096,Wisconsin Card Sorting Test,8,14785,9,1024
,,90,90,1718,1718,#3d3846,Mozilla,Netscape,"5.0 (Macintosh; Intel Mac OS X 10_15_7) AppleWebKit/605.1.15 (KHTML, like Gecko) Version/16.3 Safari/605.1.15",osweb,osweb,0,yellow,blue,green,red,osweb,1,4,1,d,0,9,9,0,0,9,0,0,9,0,0,0,0,0,0,9,9,9,9,9,,0,19-05-24,19-05-24,21:47:07,Sun May 19 2024 21:47:07 GMT+0200 (Mitteleuropäische Sommerzeit),,,The main experiment item,2,False,0,0,C:\Users\maalt\OneDrive - Universität Wien\Dokumente\Uni\Psychologie\8. Semester\Bachelorarbeit\Experimente\Winsconsin\osweb-version,0,0,0,False,mono,False,18,no,white,no,no,768,724,1440,1,1,518133,3.8.6,a47ee561-4ea2-80d4-f47b-548d9201c9ec,osweb,0,shape,osweb,,1,2,4,3,1,osweb,2.1.0,https://jatos.mindprobe.eu,,804,1440,1,1,0,1,0,0,1,0,d,yellow,c,c,2,d,circle,2392,17528,9310,2392,2,osweb,0,25,0,25,804,1440,24,900,24,0,25,1440,0,0,1716148075821,star,triangle,cross,circle,1024,2,48000,-16,experiment,,1,odd,MacIntel,42,86123,88532,78083,66302,89047,36681,54216,86123,86115,86115,89047,Wisconsin Card Sorting Test,9,17177,10,1024
,,91,91,1753,1753,#3d3846,Mozilla,Netscape,"5.0 (Macintosh; Intel Mac OS X 10_15_7) AppleWebKit/605.1.15 (KHTML, like Gecko) Version/16.3 Safari/605.1.15",osweb,osweb,0,blue,green,yellow,red,osweb,1,0,1,b,0,10,10,0,0,10,0,0,10,0,0,0,0,0,0,10,10,10,10,10,,0,19-05-24,19-05-24,21:47:07,Sun May 19 2024 21:47:07 GMT+0200 (Mitteleuropäische Sommerzeit),,,The main experiment item,2,False,0,0,C:\Users\maalt\OneDrive - Universität Wien\Dokumente\Uni\Psychologie\8. Semester\Bachelorarbeit\Experimente\Winsconsin\osweb-version,0,0,0,False,mono,False,18,no,white,no,no,768,724,1440,1,1,518133,3.8.6,a47ee561-4ea2-80d4-f47b-548d9201c9ec,osweb,0,color,osweb,,3,1,2,4,1,osweb,2.1.0,https://jatos.mindprobe.eu,,804,1440,0,1,1,1,0,0,1,0,b,yellow,c,c,4,b,triangle,2104,17528,9310,2104,2,osweb,0,25,0,25,804,1440,24,900,24,0,25,1440,0,0,1716148075821,cross,triangle,circle,star,1024,2,48000,-16,experiment,,1,odd,MacIntel,42,89073,91183,78083,66302,91696,36681,54216,89074,89065,89065,91696,Wisconsin Card Sorting Test,10,19281,11,1024
,,83,83,1835,1835,#3d3846,Mozilla,Netscape,"5.0 (Macintosh; Intel Mac OS X 10_15_7) AppleWebKit/605.1.15 (KHTML, like Gecko) Version/16.3 Safari/605.1.15",osweb,osweb,0,green,red,blue,yellow,osweb,0,0,0,d,0,11,11,0,0,11,0,0,11,0,0,0,0,0,0,11,11,11,11,11,,0,19-05-24,19-05-24,21:47:07,Sun May 19 2024 21:47:07 GMT+0200 (Mitteleuropäische Sommerzeit),,,The main experiment item,2,False,0,0,C:\Users\maalt\OneDrive - Universität Wien\Dokumente\Uni\Psychologie\8. Semester\Bachelorarbeit\Experimente\Winsconsin\osweb-version,0,0,0,False,mono,False,18,no,white,no,no,768,724,1440,1,1,518133,3.8.6,a47ee561-4ea2-80d4-f47b-548d9201c9ec,osweb,0,color,osweb,,2,1,4,3,1,osweb,2.1.0,https://jatos.mindprobe.eu,,804,1440,1,0,1,1,0,0,1,0,a,yellow,c,c,4,a,cross,2742,17528,9310,2742,2,osweb,0,25,0,25,804,1440,24,900,24,0,25,1440,0,0,1716148075821,cross,star,circle,triangle,1024,2,48000,-16,experiment,,1,odd,MacIntel,42,91725,91183,94483,66302,94997,36681,54216,91725,91716,91716,94997,Wisconsin Card Sorting Test,10,22023,12,1024
,,77,77,1988,1988,#3d3846,Mozilla,Netscape,"5.0 (Macintosh; Intel Mac OS X 10_15_7) AppleWebKit/605.1.15 (KHTML, like Gecko) Version/16.3 Safari/605.1.15",osweb,osweb,0,red,green,blue,yellow,osweb,0,0,0,c,0,12,12,0,0,12,0,0,12,0,0,0,0,0,0,12,12,12,12,12,,0,19-05-24,19-05-24,21:47:07,Sun May 19 2024 21:47:07 GMT+0200 (Mitteleuropäische Sommerzeit),,,The main experiment item,2,False,0,0,C:\Users\maalt\OneDrive - Universität Wien\Dokumente\Uni\Psychologie\8. Semester\Bachelorarbeit\Experimente\Winsconsin\osweb-version,0,0,0,False,mono,False,18,no,white,no,no,768,724,1440,1,1,518133,3.8.6,a47ee561-4ea2-80d4-f47b-548d9201c9ec,osweb,0,color,osweb,,1,2,3,4,1,osweb,2.1.0,https://jatos.mindprobe.eu,,804,1440,1,1,1,0,0,0,1,0,a,blue,c,c,1,a,circle,3826,17528,9310,3826,2,osweb,0,25,0,25,804,1440,24,900,24,0,25,1440,0,0,1716148075821,star,circle,triangle,cross,1024,2,48000,-16,experiment,,1,odd,MacIntel,42,95021,91183,98866,66302,99380,36681,54216,95021,95013,95013,99380,Wisconsin Card Sorting Test,10,25849,13,1024
,,79,79,2098,2098,#3d3846,Mozilla,Netscape,"5.0 (Macintosh; Intel Mac OS X 10_15_7) AppleWebKit/605.1.15 (KHTML, like Gecko) Version/16.3 Safari/605.1.15",osweb,osweb,0,yellow,green,red,blue,osweb,1,1,1,a,0,13,13,0,0,13,0,0,13,0,0,0,0,0,0,13,13,13,13,13,,0,19-05-24,19-05-24,21:47:07,Sun May 19 2024 21:47:07 GMT+0200 (Mitteleuropäische Sommerzeit),,,The main experiment item,2,False,0,0,C:\Users\maalt\OneDrive - Universität Wien\Dokumente\Uni\Psychologie\8. Semester\Bachelorarbeit\Experimente\Winsconsin\osweb-version,0,0,0,False,mono,False,18,no,white,no,no,768,724,1440,1,1,518133,3.8.6,a47ee561-4ea2-80d4-f47b-548d9201c9ec,osweb,0,color,osweb,,4,1,2,3,1,osweb,2.1.0,https://jatos.mindprobe.eu,,804,1440,1,1,0,1,0,0,1,0,a,yellow,c,c,3,a,circle,3516,17528,9310,3516,2,osweb,0,25,0,25,804,1440,24,900,24,0,25,1440,0,0,1716148075821,triangle,circle,star,cross,1024,2,48000,-16,experiment,,1,odd,MacIntel,42,99409,102932,98866,66302,103450,36681,54216,99409,99401,99401,103447,Wisconsin Card Sorting Test,11,29365,14,1024
,,80,80,2131,2131,#3d3846,Mozilla,Netscape,"5.0 (Macintosh; Intel Mac OS X 10_15_7) AppleWebKit/605.1.15 (KHTML, like Gecko) Version/16.3 Safari/605.1.15",osweb,osweb,0,yellow,red,blue,green,osweb,1,2,1,c,0,14,14,0,0,14,0,0,14,0,0,0,0,0,0,14,14,14,14,14,,0,19-05-24,19-05-24,21:47:07,Sun May 19 2024 21:47:07 GMT+0200 (Mitteleuropäische Sommerzeit),,,The main experiment item,2,False,0,0,C:\Users\maalt\OneDrive - Universität Wien\Dokumente\Uni\Psychologie\8. Semester\Bachelorarbeit\Experimente\Winsconsin\osweb-version,0,0,0,False,mono,False,18,no,white,no,no,768,724,1440,1,1,518133,3.8.6,a47ee561-4ea2-80d4-f47b-548d9201c9ec,osweb,0,color,osweb,,2,1,4,3,1,osweb,2.1.0,https://jatos.mindprobe.eu,,804,1440,1,0,1,1,0,0,1,0,c,blue,c,c,2,c,star,2601,17528,9310,2601,2,osweb,0,25,0,25,804,1440,24,900,24,0,25,1440,0,0,1716148075821,circle,cross,triangle,star,1024,2,48000,-16,experiment,,1,odd,MacIntel,42,103482,106101,98866,66302,106614,36681,54216,103482,103472,103472,106614,Wisconsin Card Sorting Test,12,31966,15,1024
,,81,81,2102,2102,#3d3846,Mozilla,Netscape,"5.0 (Macintosh; Intel Mac OS X 10_15_7) AppleWebKit/605.1.15 (KHTML, like Gecko) Version/16.3 Safari/605.1.15",osweb,osweb,0,red,yellow,blue,green,osweb,1,3,1,b,0,15,15,0,0,15,0,0,15,0,0,0,0,0,0,15,15,15,15,15,,0,19-05-24,19-05-24,21:47:07,Sun May 19 2024 21:47:07 GMT+0200 (Mitteleuropäische Sommerzeit),,,The main experiment item,2,False,0,0,C:\Users\maalt\OneDrive - Universität Wien\Dokumente\Uni\Psychologie\8. Semester\Bachelorarbeit\Experimente\Winsconsin\osweb-version,0,0,0,False,mono,False,18,no,white,no,no,768,724,1440,1,1,518133,3.8.6,a47ee561-4ea2-80d4-f47b-548d9201c9ec,osweb,0,color,osweb,,2,4,1,3,1,osweb,2.1.0,https://jatos.mindprobe.eu,,804,1440,0,1,1,1,0,0,1,0,b,yellow,c,c,3,b,triangle,1662,17528,9310,1662,2,osweb,0,25,0,25,804,1440,24,900,24,0,25,1440,0,0,1716148075821,star,circle,triangle,cross,1024,2,48000,-16,experiment,,1,odd,MacIntel,42,106640,108316,98866,66302,108831,36681,54216,106641,106631,106631,108831,Wisconsin Card Sorting Test,13,33628,16,1024
,,82,82,2061,2061,#3d3846,Mozilla,Netscape,"5.0 (Macintosh; Intel Mac OS X 10_15_7) AppleWebKit/605.1.15 (KHTML, like Gecko) Version/16.3 Safari/605.1.15",osweb,osweb,0,red,blue,green,yellow,osweb,1,4,1,c,0,16,16,0,0,16,0,0,16,0,0,0,0,0,0,16,16,16,16,16,,0,19-05-24,19-05-24,21:47:07,Sun May 19 2024 21:47:07 GMT+0200 (Mitteleuropäische Sommerzeit),,,The main experiment item,2,False,0,0,C:\Users\maalt\OneDrive - Universität Wien\Dokumente\Uni\Psychologie\8. Semester\Bachelorarbeit\Experimente\Winsconsin\osweb-version,0,0,0,False,mono,False,18,no,white,no,no,768,724,1440,1,1,518133,3.8.6,a47ee561-4ea2-80d4-f47b-548d9201c9ec,osweb,0,color,osweb,,4,3,2,1,1,osweb,2.1.0,https://jatos.mindprobe.eu,,804,1440,1,0,1,1,0,0,1,0,c,green,c,c,4,c,cross,1408,17528,9310,1408,2,osweb,0,25,0,25,804,1440,24,900,24,0,25,1440,0,0,1716148075821,circle,triangle,star,cross,1024,2,48000,-16,experiment,,1,odd,MacIntel,42,108862,110281,98866,66302,110797,36681,54216,108862,108852,108852,110797,Wisconsin Card Sorting Test,14,35036,17,1024
,,83,83,2005,2005,#3d3846,Mozilla,Netscape,"5.0 (Macintosh; Intel Mac OS X 10_15_7) AppleWebKit/605.1.15 (KHTML, like Gecko) Version/16.3 Safari/605.1.15",osweb,osweb,0,red,green,yellow,blue,osweb,1,0,1,a,0,17,17,0,0,17,0,0,17,0,0,0,0,0,0,17,17,17,17,17,,0,19-05-24,19-05-24,21:47:07,Sun May 19 2024 21:47:07 GMT+0200 (Mitteleuropäische Sommerzeit),,,The main experiment item,2,False,0,0,C:\Users\maalt\OneDrive - Universität Wien\Dokumente\Uni\Psychologie\8. Semester\Bachelorarbeit\Experimente\Winsconsin\osweb-version,0,0,0,False,mono,False,18,no,white,no,no,768,724,1440,1,1,518133,3.8.6,a47ee561-4ea2-80d4-f47b-548d9201c9ec,osweb,0,shape,osweb,,4,2,1,3,1,osweb,2.1.0,https://jatos.mindprobe.eu,,804,1440,1,1,1,0,0,0,1,0,a,red,c,c,1,a,cross,1046,17528,9310,1046,2,osweb,0,25,0,25,804,1440,24,900,24,0,25,1440,0,0,1716148075821,circle,cross,triangle,star,1024,2,48000,-16,experiment,,1,odd,MacIntel,42,110824,111883,98866,66302,112398,36681,54216,110824,110814,110814,112397,Wisconsin Card Sorting Test,15,36082,18,1024
,,79,79,2013,2013,#3d3846,Mozilla,Netscape,"5.0 (Macintosh; Intel Mac OS X 10_15_7) AppleWebKit/605.1.15 (KHTML, like Gecko) Version/16.3 Safari/605.1.15",osweb,osweb,0,red,yellow,green,blue,osweb,0,0,0,c,0,18,18,0,0,18,0,0,18,0,0,0,0,0,0,18,18,18,18,18,,0,19-05-24,19-05-24,21:47:07,Sun May 19 2024 21:47:07 GMT+0200 (Mitteleuropäische Sommerzeit),,,The main experiment item,2,False,0,0,C:\Users\maalt\OneDrive - Universität Wien\Dokumente\Uni\Psychologie\8. Semester\Bachelorarbeit\Experimente\Winsconsin\osweb-version,0,0,0,False,mono,False,18,no,white,no,no,768,724,1440,1,1,518133,3.8.6,a47ee561-4ea2-80d4-f47b-548d9201c9ec,osweb,0,shape,osweb,,1,3,2,4,1,osweb,2.1.0,https://jatos.mindprobe.eu,,804,1440,0,1,1,1,0,0,1,0,d,blue,c,c,3,d,circle,2162,17528,9310,2162,2,osweb,0,25,0,25,804,1440,24,900,24,0,25,1440,0,0,1716148075821,triangle,cross,circle,star,1024,2,48000,-16,experiment,,1,odd,MacIntel,42,112429,111883,114600,66302,115114,36681,54216,112430,112420,112420,115114,Wisconsin Card Sorting Test,15,38244,19,1024
,,75,75,2089,2089,#3d3846,Mozilla,Netscape,"5.0 (Macintosh; Intel Mac OS X 10_15_7) AppleWebKit/605.1.15 (KHTML, like Gecko) Version/16.3 Safari/605.1.15",osweb,osweb,0,green,blue,yellow,red,osweb,0,0,0,a,0,19,19,0,0,19,0,0,19,0,0,0,0,0,0,19,19,19,19,19,,0,19-05-24,19-05-24,21:47:07,Sun May 19 2024 21:47:07 GMT+0200 (Mitteleuropäische Sommerzeit),,,The main experiment item,2,False,0,0,C:\Users\maalt\OneDrive - Universität Wien\Dokumente\Uni\Psychologie\8. Semester\Bachelorarbeit\Experimente\Winsconsin\osweb-version,0,0,0,False,mono,False,18,no,white,no,no,768,724,1440,1,1,518133,3.8.6,a47ee561-4ea2-80d4-f47b-548d9201c9ec,osweb,0,shape,osweb,,3,1,2,4,1,osweb,2.1.0,https://jatos.mindprobe.eu,,804,1440,1,1,1,0,0,0,1,0,c,blue,c,c,2,c,circle,3538,17528,9310,3538,2,osweb,0,25,0,25,804,1440,24,900,24,0,25,1440,0,0,1716148075821,circle,star,triangle,cross,1024,2,48000,-16,experiment,,1,odd,MacIntel,42,115143,111883,118701,66302,119214,36681,54216,115143,115134,115134,119214,Wisconsin Card Sorting Test,15,41782,20,1024
,,76,76,2119,2119,#3d3846,Mozilla,Netscape,"5.0 (Macintosh; Intel Mac OS X 10_15_7) AppleWebKit/605.1.15 (KHTML, like Gecko) Version/16.3 Safari/605.1.15",osweb,osweb,0,red,green,yellow,blue,osweb,1,1,1,c,0,20,20,0,0,20,0,0,20,0,0,0,0,0,0,20,20,20,20,20,,0,19-05-24,19-05-24,21:47:07,Sun May 19 2024 21:47:07 GMT+0200 (Mitteleuropäische Sommerzeit),,,The main experiment item,2,False,0,0,C:\Users\maalt\OneDrive - Universität Wien\Dokumente\Uni\Psychologie\8. Semester\Bachelorarbeit\Experimente\Winsconsin\osweb-version,0,0,0,False,mono,False,18,no,white,no,no,768,724,1440,1,1,518133,3.8.6,a47ee561-4ea2-80d4-f47b-548d9201c9ec,osweb,0,shape,osweb,,4,1,2,3,1,osweb,2.1.0,https://jatos.mindprobe.eu,,804,1440,0,1,1,1,0,0,1,0,c,green,c,c,3,c,triangle,2722,17528,9310,2722,2,osweb,0,25,0,25,804,1440,24,900,24,0,25,1440,0,0,1716148075821,cross,star,triangle,circle,1024,2,48000,-16,experiment,,1,odd,MacIntel,42,119246,121984,118701,66302,122498,36681,54216,119246,119236,119236,122497,Wisconsin Card Sorting Test,16,44504,21,1024
,,73,73,2128,2128,#3d3846,Mozilla,Netscape,"5.0 (Macintosh; Intel Mac OS X 10_15_7) AppleWebKit/605.1.15 (KHTML, like Gecko) Version/16.3 Safari/605.1.15",osweb,osweb,0,red,yellow,green,blue,osweb,0,0,0,a,0,21,21,0,0,21,0,0,21,0,0,0,0,0,0,21,21,21,21,21,,0,19-05-24,19-05-24,21:47:07,Sun May 19 2024 21:47:07 GMT+0200 (Mitteleuropäische Sommerzeit),,,The main experiment item,2,False,0,0,C:\Users\maalt\OneDrive - Universität Wien\Dokumente\Uni\Psychologie\8. Semester\Bachelorarbeit\Experimente\Winsconsin\osweb-version,0,0,0,False,mono,False,18,no,white,no,no,768,724,1440,1,1,518133,3.8.6,a47ee561-4ea2-80d4-f47b-548d9201c9ec,osweb,0,shape,osweb,,3,2,1,4,1,osweb,2.1.0,https://jatos.mindprobe.eu,,804,1440,1,1,1,0,0,0,1,0,b,green,c,c,2,b,circle,2318,17528,9310,2318,2,osweb,0,25,0,25,804,1440,24,900,24,0,25,1440,0,0,1716148075821,circle,cross,star,triangle,1024,2,48000,-16,experiment,,1,odd,MacIntel,42,122522,121984,124850,66302,125364,36681,54216,122522,122512,122512,125364,Wisconsin Card Sorting Test,16,46822,22,1024
,,74,74,2218,2218,#3d3846,Mozilla,Netscape,"5.0 (Macintosh; Intel Mac OS X 10_15_7) AppleWebKit/605.1.15 (KHTML, like Gecko) Version/16.3 Safari/605.1.15",osweb,osweb,0,yellow,red,green,blue,osweb,1,1,1,a,0,22,22,0,0,22,0,0,22,0,0,0,0,0,0,22,22,22,22,22,,0,19-05-24,19-05-24,21:47:07,Sun May 19 2024 21:47:07 GMT+0200 (Mitteleuropäische Sommerzeit),,,The main experiment item,2,False,0,0,C:\Users\maalt\OneDrive - Universität Wien\Dokumente\Uni\Psychologie\8. Semester\Bachelorarbeit\Experimente\Winsconsin\osweb-version,0,0,0,False,mono,False,18,no,white,no,no,768,724,1440,1,1,518133,3.8.6,a47ee561-4ea2-80d4-f47b-548d9201c9ec,osweb,0,shape,osweb,,1,2,4,3,1,osweb,2.1.0,https://jatos.mindprobe.eu,,804,1440,1,0,1,1,0,0,1,0,a,green,c,c,3,a,star,4190,17528,9310,4190,2,osweb,0,25,0,25,804,1440,24,900,24,0,25,1440,0,0,1716148075821,star,cross,triangle,circle,1024,2,48000,-16,experiment,,1,odd,MacIntel,42,125392,129601,124850,66302,130115,36681,54216,125392,125383,125383,130115,Wisconsin Card Sorting Test,17,51012,23,1024
,,75,75,2200,2200,#3d3846,Mozilla,Netscape,"5.0 (Macintosh; Intel Mac OS X 10_15_7) AppleWebKit/605.1.15 (KHTML, like Gecko) Version/16.3 Safari/605.1.15",osweb,osweb,0,yellow,red,green,blue,osweb,1,2,1,c,0,23,23,0,0,23,0,0,23,0,0,0,0,0,0,23,23,23,23,23,,0,19-05-24,19-05-24,21:47:07,Sun May 19 2024 21:47:07 GMT+0200 (Mitteleuropäische Sommerzeit),,,The main experiment item,2,False,0,0,C:\Users\maalt\OneDrive - Universität Wien\Dokumente\Uni\Psychologie\8. Semester\Bachelorarbeit\Experimente\Winsconsin\osweb-version,0,0,0,False,mono,False,18,no,white,no,no,768,724,1440,1,1,518133,3.8.6,a47ee561-4ea2-80d4-f47b-548d9201c9ec,osweb,0,shape,osweb,,3,1,2,4,1,osweb,2.1.0,https://jatos.mindprobe.eu,,804,1440,1,0,1,1,0,0,1,0,c,yellow,c,c,4,c,star,1797,17528,9310,1797,2,osweb,0,25,0,25,804,1440,24,900,24,0,25,1440,0,0,1716148075821,cross,triangle,star,circle,1024,2,48000,-16,experiment,,1,odd,MacIntel,42,130142,131949,124850,66302,132465,36681,54216,130142,130132,130132,132464,Wisconsin Card Sorting Test,18,52809,24,1024
,,76,76,2210,2210,#3d3846,Mozilla,Netscape,"5.0 (Macintosh; Intel Mac OS X 10_15_7) AppleWebKit/605.1.15 (KHTML, like Gecko) Version/16.3 Safari/605.1.15",osweb,osweb,0,red,blue,green,yellow,osweb,1,3,1,c,0,24,24,0,0,24,0,0,24,0,0,0,0,0,0,24,24,24,24,24,,0,19-05-24,19-05-24,21:47:07,Sun May 19 2024 21:47:07 GMT+0200 (Mitteleuropäische Sommerzeit),,,The main experiment item,2,False,0,0,C:\Users\maalt\OneDrive - Universität Wien\Dokumente\Uni\Psychologie\8. Semester\Bachelorarbeit\Experimente\Winsconsin\osweb-version,0,0,0,False,mono,False,18,no,white,no,no,768,724,1440,1,1,518133,3.8.6,a47ee561-4ea2-80d4-f47b-548d9201c9ec,osweb,0,shape,osweb,,3,4,1,2,1,osweb,2.1.0,https://jatos.mindprobe.eu,,804,1440,0,1,1,1,0,0,1,0,c,blue,c,c,2,c,triangle,2447,17528,9310,2447,2,osweb,0,25,0,25,804,1440,24,900,24,0,25,1440,0,0,1716148075821,cross,circle,triangle,star,1024,2,48000,-16,experiment,,1,odd,MacIntel,42,132490,134950,124850,66302,135465,36681,54216,132490,132480,132480,135464,Wisconsin Card Sorting Test,19,55256,25,1024
,,77,77,2198,2198,#3d3846,Mozilla,Netscape,"5.0 (Macintosh; Intel Mac OS X 10_15_7) AppleWebKit/605.1.15 (KHTML, like Gecko) Version/16.3 Safari/605.1.15",osweb,osweb,0,green,red,blue,yellow,osweb,1,4,1,a,0,25,25,0,0,25,0,0,25,0,0,0,0,0,0,25,25,25,25,25,,0,19-05-24,19-05-24,21:47:07,Sun May 19 2024 21:47:07 GMT+0200 (Mitteleuropäische Sommerzeit),,,The main experiment item,2,False,0,0,C:\Users\maalt\OneDrive - Universität Wien\Dokumente\Uni\Psychologie\8. Semester\Bachelorarbeit\Experimente\Winsconsin\osweb-version,0,0,0,False,mono,False,18,no,white,no,no,768,724,1440,1,1,518133,3.8.6,a47ee561-4ea2-80d4-f47b-548d9201c9ec,osweb,0,shape,osweb,,3,1,2,4,1,osweb,2.1.0,https://jatos.mindprobe.eu,,804,1440,1,1,1,0,0,0,1,0,a,blue,c,c,1,a,star,1903,17528,9310,1903,2,osweb,0,25,0,25,804,1440,24,900,24,0,25,1440,0,0,1716148075821,star,circle,cross,triangle,1024,2,48000,-16,experiment,,1,odd,MacIntel,42,135492,137400,124850,66302,137915,36681,54216,135492,135482,135482,137915,Wisconsin Card Sorting Test,20,57159,26,1024
,,78,78,2172,2172,#3d3846,Mozilla,Netscape,"5.0 (Macintosh; Intel Mac OS X 10_15_7) AppleWebKit/605.1.15 (KHTML, like Gecko) Version/16.3 Safari/605.1.15",osweb,osweb,0,green,yellow,red,blue,osweb,1,0,1,a,0,26,26,0,0,26,0,0,26,0,0,0,0,0,0,26,26,26,26,26,,0,19-05-24,19-05-24,21:47:07,Sun May 19 2024 21:47:07 GMT+0200 (Mitteleuropäische Sommerzeit),,,The main experiment item,2,False,0,0,C:\Users\maalt\OneDrive - Universität Wien\Dokumente\Uni\Psychologie\8. Semester\Bachelorarbeit\Experimente\Winsconsin\osweb-version,0,0,0,False,mono,False,18,no,white,no,no,768,724,1440,1,1,518133,3.8.6,a47ee561-4ea2-80d4-f47b-548d9201c9ec,osweb,0,color,osweb,,2,4,3,1,1,osweb,2.1.0,https://jatos.mindprobe.eu,,804,1440,1,1,1,0,0,0,1,0,a,red,c,c,4,a,cross,1474,17528,9310,1474,2,osweb,0,25,0,25,804,1440,24,900,24,0,25,1440,0,0,1716148075821,cross,star,circle,triangle,1024,2,48000,-16,experiment,,1,odd,MacIntel,42,137939,139417,124850,66302,139932,36681,54216,137939,137929,137929,139931,Wisconsin Card Sorting Test,21,58633,27,1024
,,75,75,2144,2144,#3d3846,Mozilla,Netscape,"5.0 (Macintosh; Intel Mac OS X 10_15_7) AppleWebKit/605.1.15 (KHTML, like Gecko) Version/16.3 Safari/605.1.15",osweb,osweb,0,yellow,green,red,blue,osweb,0,0,0,d,0,27,27,0,0,27,0,0,27,0,0,0,0,0,0,27,27,27,27,27,,0,19-05-24,19-05-24,21:47:07,Sun May 19 2024 21:47:07 GMT+0200 (Mitteleuropäische Sommerzeit),,,The main experiment item,2,False,0,0,C:\Users\maalt\OneDrive - Universität Wien\Dokumente\Uni\Psychologie\8. Semester\Bachelorarbeit\Experimente\Winsconsin\osweb-version,0,0,0,False,mono,False,18,no,white,no,no,768,724,1440,1,1,518133,3.8.6,a47ee561-4ea2-80d4-f47b-548d9201c9ec,osweb,0,color,osweb,,3,1,4,2,1,osweb,2.1.0,https://jatos.mindprobe.eu,,804,1440,1,0,1,1,0,0,1,0,c,blue,c,c,3,c,cross,1393,17528,9310,1393,2,osweb,0,25,0,25,804,1440,24,900,24,0,25,1440,0,0,1716148075821,circle,triangle,cross,star,1024,2,48000,-16,experiment,,1,odd,MacIntel,42,139958,139417,141366,66302,141882,36681,54216,139958,139949,139949,141881,Wisconsin Card Sorting Test,21,60026,28,1024
,,76,76,2126,2126,#3d3846,Mozilla,Netscape,"5.0 (Macintosh; Intel Mac OS X 10_15_7) AppleWebKit/605.1.15 (KHTML, like Gecko) Version/16.3 Safari/605.1.15",osweb,osweb,0,yellow,green,blue,red,osweb,1,1,1,a,0,28,28,0,0,28,0,0,28,0,0,0,0,0,0,28,28,28,28,28,,0,19-05-24,19-05-24,21:47:07,Sun May 19 2024 21:47:07 GMT+0200 (Mitteleuropäische Sommerzeit),,,The main experiment item,2,False,0,0,C:\Users\maalt\OneDrive - Universität Wien\Dokumente\Uni\Psychologie\8. Semester\Bachelorarbeit\Experimente\Winsconsin\osweb-version,0,0,0,False,mono,False,18,no,white,no,no,768,724,1440,1,1,518133,3.8.6,a47ee561-4ea2-80d4-f47b-548d9201c9ec,osweb,0,color,osweb,,1,4,2,3,1,osweb,2.1.0,https://jatos.mindprobe.eu,,804,1440,1,1,0,1,0,0,1,0,a,yellow,c,c,3,a,triangle,1617,17528,9310,1617,2,osweb,0,25,0,25,804,1440,24,900,24,0,25,1440,0,0,1716148075821,cross,triangle,star,circle,1024,2,48000,-16,experiment,,1,odd,MacIntel,42,141907,143532,141366,66302,144048,36681,54216,141907,141897,141897,144048,Wisconsin Card Sorting Test,22,61643,29,1024
,,77,77,2105,2105,#3d3846,Mozilla,Netscape,"5.0 (Macintosh; Intel Mac OS X 10_15_7) AppleWebKit/605.1.15 (KHTML, like Gecko) Version/16.3 Safari/605.1.15",osweb,osweb,0,red,yellow,blue,green,osweb,1,2,1,b,0,29,29,0,0,29,0,0,29,0,0,0,0,0,0,29,29,29,29,29,,0,19-05-24,19-05-24,21:47:07,Sun May 19 2024 21:47:07 GMT+0200 (Mitteleuropäische Sommerzeit),,,The main experiment item,2,False,0,0,C:\Users\maalt\OneDrive - Universität Wien\Dokumente\Uni\Psychologie\8. Semester\Bachelorarbeit\Experimente\Winsconsin\osweb-version,0,0,0,False,mono,False,18,no,white,no,no,768,724,1440,1,1,518133,3.8.6,a47ee561-4ea2-80d4-f47b-548d9201c9ec,osweb,0,color,osweb,,4,1,2,3,1,osweb,2.1.0,https://jatos.mindprobe.eu,,804,1440,1,1,1,0,0,0,1,0,b,yellow,c,c,4,b,circle,1494,17528,9310,1494,2,osweb,0,25,0,25,804,1440,24,900,24,0,25,1440,0,0,1716148075821,star,cross,circle,triangle,1024,2,48000,-16,experiment,,1,odd,MacIntel,42,144073,145584,141366,66302,146099,36681,54216,144073,144063,144063,146098,Wisconsin Card Sorting Test,23,63137,30,1024
,,77,77,2085,2085,#3d3846,Mozilla,Netscape,"5.0 (Macintosh; Intel Mac OS X 10_15_7) AppleWebKit/605.1.15 (KHTML, like Gecko) Version/16.3 Safari/605.1.15",osweb,osweb,0,blue,green,red,yellow,osweb,1,3,1,a,0,30,30,0,0,30,0,0,30,0,0,0,0,0,0,30,30,30,30,30,,0,19-05-24,19-05-24,21:47:07,Sun May 19 2024 21:47:07 GMT+0200 (Mitteleuropäische Sommerzeit),,,The main experiment item,2,False,0,0,C:\Users\maalt\OneDrive - Universität Wien\Dokumente\Uni\Psychologie\8. Semester\Bachelorarbeit\Experimente\Winsconsin\osweb-version,0,0,0,False,mono,False,18,no,white,no,no,768,724,1440,1,1,518133,3.8.6,a47ee561-4ea2-80d4-f47b-548d9201c9ec,osweb,0,color,osweb,,3,2,4,1,1,osweb,2.1.0,https://jatos.mindprobe.eu,,804,1440,1,1,1,0,0,0,1,0,a,blue,c,c,2,a,circle,1512,17528,9310,1512,2,osweb,0,25,0,25,804,1440,24,900,24,0,25,1440,0,0,1716148075821,triangle,star,circle,cross,1024,2,48000,-16,experiment,,1,odd,MacIntel,42,146125,147650,141366,66302,148165,36681,54216,146125,146115,146115,148165,Wisconsin Card Sorting Test,24,64649,31,1024
,,78,78,2075,2075,#3d3846,Mozilla,Netscape,"5.0 (Macintosh; Intel Mac OS X 10_15_7) AppleWebKit/605.1.15 (KHTML, like Gecko) Version/16.3 Safari/605.1.15",osweb,osweb,0,red,yellow,blue,green,osweb,1,4,1,b,0,31,31,0,0,31,0,0,31,0,0,0,0,0,0,31,31,31,31,31,,0,19-05-24,19-05-24,21:47:07,Sun May 19 2024 21:47:07 GMT+0200 (Mitteleuropäische Sommerzeit),,,The main experiment item,2,False,0,0,C:\Users\maalt\OneDrive - Universität Wien\Dokumente\Uni\Psychologie\8. Semester\Bachelorarbeit\Experimente\Winsconsin\osweb-version,0,0,0,False,mono,False,18,no,white,no,no,768,724,1440,1,1,518133,3.8.6,a47ee561-4ea2-80d4-f47b-548d9201c9ec,osweb,0,color,osweb,,2,3,4,1,1,osweb,2.1.0,https://jatos.mindprobe.eu,,804,1440,1,1,1,0,0,0,1,0,b,yellow,c,c,4,b,cross,1758,17528,9310,1758,2,osweb,0,25,0,25,804,1440,24,900,24,0,25,1440,0,0,1716148075821,cross,star,circle,triangle,1024,2,48000,-16,experiment,,1,odd,MacIntel,42,148191,149968,141366,66302,150482,36681,54216,148191,148182,148182,150482,Wisconsin Card Sorting Test,25,66407,32,1024
,,76,76,2086,2086,#3d3846,Mozilla,Netscape,"5.0 (Macintosh; Intel Mac OS X 10_15_7) AppleWebKit/605.1.15 (KHTML, like Gecko) Version/16.3 Safari/605.1.15",osweb,osweb,0,blue,yellow,red,green,osweb,0,0,0,a,0,32,32,0,0,32,0,0,32,0,0,0,0,0,0,32,32,32,32,32,,0,19-05-24,19-05-24,21:47:07,Sun May 19 2024 21:47:07 GMT+0200 (Mitteleuropäische Sommerzeit),,,The main experiment item,2,False,0,0,C:\Users\maalt\OneDrive - Universität Wien\Dokumente\Uni\Psychologie\8. Semester\Bachelorarbeit\Experimente\Winsconsin\osweb-version,0,0,0,False,mono,False,18,no,white,no,no,768,724,1440,1,1,518133,3.8.6,a47ee561-4ea2-80d4-f47b-548d9201c9ec,osweb,0,color,osweb,,2,3,1,4,1,osweb,2.1.0,https://jatos.mindprobe.eu,,804,1440,1,1,1,0,0,0,1,0,b,blue,c,c,1,b,cross,2433,17528,9310,2433,2,osweb,0,25,0,25,804,1440,24,900,24,0,25,1440,0,0,1716148075821,triangle,cross,star,circle,1024,2,48000,-16,experiment,,1,odd,MacIntel,42,150511,149968,152950,66302,153465,36681,54216,150511,150502,150502,153465,Wisconsin Card Sorting Test,25,68840,33,1024
,,76,76,2080,2080,#3d3846,Mozilla,Netscape,"5.0 (Macintosh; Intel Mac OS X 10_15_7) AppleWebKit/605.1.15 (KHTML, like Gecko) Version/16.3 Safari/605.1.15",osweb,osweb,0,green,red,yellow,blue,osweb,1,1,1,d,0,33,33,0,0,33,0,0,33,0,0,0,0,0,0,33,33,33,33,33,,0,19-05-24,19-05-24,21:47:07,Sun May 19 2024 21:47:07 GMT+0200 (Mitteleuropäische Sommerzeit),,,The main experiment item,2,False,0,0,C:\Users\maalt\OneDrive - Universität Wien\Dokumente\Uni\Psychologie\8. Semester\Bachelorarbeit\Experimente\Winsconsin\osweb-version,0,0,0,False,mono,False,18,no,white,no,no,768,724,1440,1,1,518133,3.8.6,a47ee561-4ea2-80d4-f47b-548d9201c9ec,osweb,0,color,osweb,,2,1,4,3,1,osweb,2.1.0,https://jatos.mindprobe.eu,,804,1440,1,0,1,1,0,0,1,0,d,blue,c,c,2,d,star,1896,17528,9310,1896,2,osweb,0,25,0,25,804,1440,24,900,24,0,25,1440,0,0,1716148075821,cross,triangle,star,circle,1024,2,48000,-16,experiment,,1,odd,MacIntel,42,153488,155401,152950,66302,155916,36681,54216,153488,153479,153479,155915,Wisconsin Card Sorting Test,26,70736,34,1024
,,77,77,2066,2066,#3d3846,Mozilla,Netscape,"5.0 (Macintosh; Intel Mac OS X 10_15_7) AppleWebKit/605.1.15 (KHTML, like Gecko) Version/16.3 Safari/605.1.15",osweb,osweb,0,blue,yellow,green,red,osweb,1,2,1,c,0,34,34,0,0,34,0,0,34,0,0,0,0,0,0,34,34,34,34,34,,0,19-05-24,19-05-24,21:47:07,Sun May 19 2024 21:47:07 GMT+0200 (Mitteleuropäische Sommerzeit),,,The main experiment item,2,False,0,0,C:\Users\maalt\OneDrive - Universität Wien\Dokumente\Uni\Psychologie\8. Semester\Bachelorarbeit\Experimente\Winsconsin\osweb-version,0,0,0,False,mono,False,18,no,white,no,no,768,724,1440,1,1,518133,3.8.6,a47ee561-4ea2-80d4-f47b-548d9201c9ec,osweb,0,color,osweb,,4,1,2,3,1,osweb,2.1.0,https://jatos.mindprobe.eu,,804,1440,1,0,1,1,0,0,1,0,c,green,c,c,4,c,cross,1580,17528,9310,1580,2,osweb,0,25,0,25,804,1440,24,900,24,0,25,1440,0,0,1716148075821,circle,triangle,star,cross,1024,2,48000,-16,experiment,,1,odd,MacIntel,42,155942,157533,152950,66302,158049,36681,54216,155943,155933,155933,158048,Wisconsin Card Sorting Test,27,72316,35,1024
,,78,78,2065,2065,#3d3846,Mozilla,Netscape,"5.0 (Macintosh; Intel Mac OS X 10_15_7) AppleWebKit/605.1.15 (KHTML, like Gecko) Version/16.3 Safari/605.1.15",osweb,osweb,0,yellow,green,blue,red,osweb,1,3,1,d,0,35,35,0,0,35,0,0,35,0,0,0,0,0,0,35,35,35,35,35,,0,19-05-24,19-05-24,21:47:07,Sun May 19 2024 21:47:07 GMT+0200 (Mitteleuropäische Sommerzeit),,,The main experiment item,2,False,0,0,C:\Users\maalt\OneDrive - Universität Wien\Dokumente\Uni\Psychologie\8. Semester\Bachelorarbeit\Experimente\Winsconsin\osweb-version,0,0,0,False,mono,False,18,no,white,no,no,768,724,1440,1,1,518133,3.8.6,a47ee561-4ea2-80d4-f47b-548d9201c9ec,osweb,0,color,osweb,,4,3,1,2,1,osweb,2.1.0,https://jatos.mindprobe.eu,,804,1440,1,1,0,1,0,0,1,0,d,red,c,c,3,d,star,2027,17528,9310,2027,2,osweb,0,25,0,25,804,1440,24,900,24,0,25,1440,0,0,1716148075821,star,cross,circle,triangle,1024,2,48000,-16,experiment,,1,odd,MacIntel,42,158075,160119,152950,66302,160632,36681,54216,158075,158065,158065,160632,Wisconsin Card Sorting Test,28,74343,36,1024
,,78,78,2032,2032,#3d3846,Mozilla,Netscape,"5.0 (Macintosh; Intel Mac OS X 10_15_7) AppleWebKit/605.1.15 (KHTML, like Gecko) Version/16.3 Safari/605.1.15",osweb,osweb,0,yellow,blue,red,green,osweb,1,4,1,c,0,36,36,0,0,36,0,0,36,0,0,0,0,0,0,36,36,36,36,36,,0,19-05-24,19-05-24,21:47:07,Sun May 19 2024 21:47:07 GMT+0200 (Mitteleuropäische Sommerzeit),,,The main experiment item,2,False,0,0,C:\Users\maalt\OneDrive - Universität Wien\Dokumente\Uni\Psychologie\8. Semester\Bachelorarbeit\Experimente\Winsconsin\osweb-version,0,0,0,False,mono,False,18,no,white,no,no,768,724,1440,1,1,518133,3.8.6,a47ee561-4ea2-80d4-f47b-548d9201c9ec,osweb,0,color,osweb,,3,4,1,2,1,osweb,2.1.0,https://jatos.mindprobe.eu,,804,1440,1,1,1,0,0,0,1,0,c,red,c,c,4,c,triangle,857,17528,9310,857,2,osweb,0,25,0,25,804,1440,24,900,24,0,25,1440,0,0,1716148075821,triangle,circle,cross,star,1024,2,48000,-16,experiment,,1,odd,MacIntel,42,160660,161535,152950,66302,162049,36681,54216,160660,160650,160650,162049,Wisconsin Card Sorting Test,29,75200,37,1024
,,79,79,2008,2008,#3d3846,Mozilla,Netscape,"5.0 (Macintosh; Intel Mac OS X 10_15_7) AppleWebKit/605.1.15 (KHTML, like Gecko) Version/16.3 Safari/605.1.15",osweb,osweb,0,blue,red,green,yellow,osweb,1,0,1,d,0,37,37,0,0,37,0,0,37,0,0,0,0,0,0,37,37,37,37,37,,0,19-05-24,19-05-24,21:47:07,Sun May 19 2024 21:47:07 GMT+0200 (Mitteleuropäische Sommerzeit),,,The main experiment item,2,False,0,0,C:\Users\maalt\OneDrive - Universität Wien\Dokumente\Uni\Psychologie\8. Semester\Bachelorarbeit\Experimente\Winsconsin\osweb-version,0,0,0,False,mono,False,18,no,white,no,no,768,724,1440,1,1,518133,3.8.6,a47ee561-4ea2-80d4-f47b-548d9201c9ec,osweb,0,shape,osweb,,4,2,3,1,1,osweb,2.1.0,https://jatos.mindprobe.eu,,804,1440,1,1,0,1,0,0,1,0,d,yellow,c,c,4,d,circle,1104,17528,9310,1104,2,osweb,0,25,0,25,804,1440,24,900,24,0,25,1440,0,0,1716148075821,cross,circle,triangle,star,1024,2,48000,-16,experiment,,1,odd,MacIntel,42,162072,163183,152950,66302,163699,36681,54216,162073,162063,162063,163699,Wisconsin Card Sorting Test,30,76304,38,1024
,,77,77,1981,1981,#3d3846,Mozilla,Netscape,"5.0 (Macintosh; Intel Mac OS X 10_15_7) AppleWebKit/605.1.15 (KHTML, like Gecko) Version/16.3 Safari/605.1.15",osweb,osweb,0,yellow,green,red,blue,osweb,0,0,0,b,0,38,38,0,0,38,0,0,38,0,0,0,0,0,0,38,38,38,38,38,,0,19-05-24,19-05-24,21:47:07,Sun May 19 2024 21:47:07 GMT+0200 (Mitteleuropäische Sommerzeit),,,The main experiment item,2,False,0,0,C:\Users\maalt\OneDrive - Universität Wien\Dokumente\Uni\Psychologie\8. Semester\Bachelorarbeit\Experimente\Winsconsin\osweb-version,0,0,0,False,mono,False,18,no,white,no,no,768,724,1440,1,1,518133,3.8.6,a47ee561-4ea2-80d4-f47b-548d9201c9ec,osweb,0,shape,osweb,,3,4,2,1,1,osweb,2.1.0,https://jatos.mindprobe.eu,,804,1440,1,1,0,1,0,0,1,0,a,yellow,c,c,1,a,circle,970,17528,9310,970,2,osweb,0,25,0,25,804,1440,24,900,24,0,25,1440,0,0,1716148075821,cross,circle,star,triangle,1024,2,48000,-16,experiment,,1,odd,MacIntel,42,163726,163183,164701,66302,165216,36681,54216,163726,163717,163717,165215,Wisconsin Card Sorting Test,30,77274,39,1024
,,78,78,2089,2089,#3d3846,Mozilla,Netscape,"5.0 (Macintosh; Intel Mac OS X 10_15_7) AppleWebKit/605.1.15 (KHTML, like Gecko) Version/16.3 Safari/605.1.15",osweb,osweb,0,red,yellow,blue,green,osweb,1,1,1,a,0,39,39,0,0,39,0,0,39,0,0,0,0,0,0,39,39,39,39,39,,0,19-05-24,19-05-24,21:47:07,Sun May 19 2024 21:47:07 GMT+0200 (Mitteleuropäische Sommerzeit),,,The main experiment item,2,False,0,0,C:\Users\maalt\OneDrive - Universität Wien\Dokumente\Uni\Psychologie\8. Semester\Bachelorarbeit\Experimente\Winsconsin\osweb-version,0,0,0,False,mono,False,18,no,white,no,no,768,724,1440,1,1,518133,3.8.6,a47ee561-4ea2-80d4-f47b-548d9201c9ec,osweb,0,shape,osweb,,1,4,2,3,1,osweb,2.1.0,https://jatos.mindprobe.eu,,804,1440,1,1,1,0,0,0,1,0,a,blue,c,c,4,a,cross,6282,17528,9310,6282,2,osweb,0,25,0,25,804,1440,24,900,24,0,25,1440,0,0,1716148075821,cross,star,triangle,circle,1024,2,48000,-16,experiment,,1,odd,MacIntel,42,165240,171536,164701,66302,172049,36681,54216,165240,165231,165231,172049,Wisconsin Card Sorting Test,31,83556,40,1024
,,78,78,2079,2079,#3d3846,Mozilla,Netscape,"5.0 (Macintosh; Intel Mac OS X 10_15_7) AppleWebKit/605.1.15 (KHTML, like Gecko) Version/16.3 Safari/605.1.15",osweb,osweb,0,blue,red,green,yellow,osweb,1,2,1,b,0,40,40,0,0,40,0,0,40,0,0,0,0,0,0,40,40,40,40,40,,0,19-05-24,19-05-24,21:47:07,Sun May 19 2024 21:47:07 GMT+0200 (Mitteleuropäische Sommerzeit),,,The main experiment item,2,False,0,0,C:\Users\maalt\OneDrive - Universität Wien\Dokumente\Uni\Psychologie\8. Semester\Bachelorarbeit\Experimente\Winsconsin\osweb-version,0,0,0,False,mono,False,18,no,white,no,no,768,724,1440,1,1,518133,3.8.6,a47ee561-4ea2-80d4-f47b-548d9201c9ec,osweb,0,shape,osweb,,4,2,3,1,1,osweb,2.1.0,https://jatos.mindprobe.eu,,804,1440,1,1,0,1,0,0,1,0,b,blue,c,c,1,b,star,1697,17528,9310,1697,2,osweb,0,25,0,25,804,1440,24,900,24,0,25,1440,0,0,1716148075821,circle,star,triangle,cross,1024,2,48000,-16,experiment,,1,odd,MacIntel,42,172076,173785,164701,66302,174299,36681,54216,172076,172068,172068,174299,Wisconsin Card Sorting Test,32,85253,41,1024
,,79,79,2086,2086,#3d3846,Mozilla,Netscape,"5.0 (Macintosh; Intel Mac OS X 10_15_7) AppleWebKit/605.1.15 (KHTML, like Gecko) Version/16.3 Safari/605.1.15",osweb,osweb,0,blue,yellow,green,red,osweb,1,3,1,d,0,41,41,0,0,41,0,0,41,0,0,0,0,0,0,41,41,41,41,41,,0,19-05-24,19-05-24,21:47:07,Sun May 19 2024 21:47:07 GMT+0200 (Mitteleuropäische Sommerzeit),,,The main experiment item,2,False,0,0,C:\Users\maalt\OneDrive - Universität Wien\Dokumente\Uni\Psychologie\8. Semester\Bachelorarbeit\Experimente\Winsconsin\osweb-version,0,0,0,False,mono,False,18,no,white,no,no,768,724,1440,1,1,518133,3.8.6,a47ee561-4ea2-80d4-f47b-548d9201c9ec,osweb,0,shape,osweb,,3,1,2,4,1,osweb,2.1.0,https://jatos.mindprobe.eu,,804,1440,0,1,1,1,0,0,1,0,d,yellow,c,c,2,d,triangle,2353,17528,9310,2353,2,osweb,0,25,0,25,804,1440,24,900,24,0,25,1440,0,0,1716148075821,cross,star,circle,triangle,1024,2,48000,-16,experiment,,1,odd,MacIntel,42,174324,176685,164701,66302,177200,36681,54216,174324,174315,174315,177199,Wisconsin Card Sorting Test,33,87606,42,1024
,,79,79,2069,2069,#3d3846,Mozilla,Netscape,"5.0 (Macintosh; Intel Mac OS X 10_15_7) AppleWebKit/605.1.15 (KHTML, like Gecko) Version/16.3 Safari/605.1.15",osweb,osweb,0,yellow,green,blue,red,osweb,1,4,1,b,0,42,42,0,0,42,0,0,42,0,0,0,0,0,0,42,42,42,42,42,,0,19-05-24,19-05-24,21:47:07,Sun May 19 2024 21:47:07 GMT+0200 (Mitteleuropäische Sommerzeit),,,The main experiment item,2,False,0,0,C:\Users\maalt\OneDrive - Universität Wien\Dokumente\Uni\Psychologie\8. Semester\Bachelorarbeit\Experimente\Winsconsin\osweb-version,0,0,0,False,mono,False,18,no,white,no,no,768,724,1440,1,1,518133,3.8.6,a47ee561-4ea2-80d4-f47b-548d9201c9ec,osweb,0,shape,osweb,,1,2,4,3,1,osweb,2.1.0,https://jatos.mindprobe.eu,,804,1440,1,1,0,1,0,0,1,0,b,yellow,c,c,3,b,triangle,1341,17528,9310,1341,2,osweb,0,25,0,25,804,1440,24,900,24,0,25,1440,0,0,1716148075821,cross,triangle,circle,star,1024,2,48000,-16,experiment,,1,odd,MacIntel,42,177228,178586,164701,66302,179100,36681,54216,177228,177218,177218,179099,Wisconsin Card Sorting Test,34,88947,43,1024
,,80,80,2077,2077,#3d3846,Mozilla,Netscape,"5.0 (Macintosh; Intel Mac OS X 10_15_7) AppleWebKit/605.1.15 (KHTML, like Gecko) Version/16.3 Safari/605.1.15",osweb,osweb,0,yellow,blue,red,green,osweb,1,0,1,c,0,43,43,0,0,43,0,0,43,0,0,0,0,0,0,43,43,43,43,43,,0,19-05-24,19-05-24,21:47:07,Sun May 19 2024 21:47:07 GMT+0200 (Mitteleuropäische Sommerzeit),,,The main experiment item,2,False,0,0,C:\Users\maalt\OneDrive - Universität Wien\Dokumente\Uni\Psychologie\8. Semester\Bachelorarbeit\Experimente\Winsconsin\osweb-version,0,0,0,False,mono,False,18,no,white,no,no,768,724,1440,1,1,518133,3.8.6,a47ee561-4ea2-80d4-f47b-548d9201c9ec,osweb,0,color,osweb,,4,2,1,3,1,osweb,2.1.0,https://jatos.mindprobe.eu,,804,1440,1,1,1,0,0,0,1,0,c,yellow,c,c,2,c,circle,2462,17528,9310,2462,2,osweb,0,25,0,25,804,1440,24,900,24,0,25,1440,0,0,1716148075821,cross,star,circle,triangle,1024,2,48000,-16,experiment,,1,odd,MacIntel,42,179125,181602,164701,66302,182116,36681,54216,179126,179116,179116,182116,Wisconsin Card Sorting Test,35,91409,44,1024
,,78,78,2053,2053,#3d3846,Mozilla,Netscape,"5.0 (Macintosh; Intel Mac OS X 10_15_7) AppleWebKit/605.1.15 (KHTML, like Gecko) Version/16.3 Safari/605.1.15",osweb,osweb,0,blue,yellow,red,green,osweb,0,0,0,b,0,44,44,0,0,44,0,0,44,0,0,0,0,0,0,44,44,44,44,44,,0,19-05-24,19-05-24,21:47:07,Sun May 19 2024 21:47:07 GMT+0200 (Mitteleuropäische Sommerzeit),,,The main experiment item,2,False,0,0,C:\Users\maalt\OneDrive - Universität Wien\Dokumente\Uni\Psychologie\8. Semester\Bachelorarbeit\Experimente\Winsconsin\osweb-version,0,0,0,False,mono,False,18,no,white,no,no,768,724,1440,1,1,518133,3.8.6,a47ee561-4ea2-80d4-f47b-548d9201c9ec,osweb,0,color,osweb,,2,1,4,3,1,osweb,2.1.0,https://jatos.mindprobe.eu,,804,1440,0,1,1,1,0,0,1,0,c,yellow,c,c,3,c,circle,983,17528,9310,983,2,osweb,0,25,0,25,804,1440,24,900,24,0,25,1440,0,0,1716148075821,cross,star,circle,triangle,1024,2,48000,-16,experiment,,1,odd,MacIntel,42,182141,181602,183135,66302,183650,36681,54216,182141,182131,182131,183649,Wisconsin Card Sorting Test,35,92392,45,1024
,,78,78,2085,2085,#3d3846,Mozilla,Netscape,"5.0 (Macintosh; Intel Mac OS X 10_15_7) AppleWebKit/605.1.15 (KHTML, like Gecko) Version/16.3 Safari/605.1.15",osweb,osweb,0,blue,yellow,red,green,osweb,1,1,1,d,0,45,45,0,0,45,0,0,45,0,0,0,0,0,0,45,45,45,45,45,,0,19-05-24,19-05-24,21:47:07,Sun May 19 2024 21:47:07 GMT+0200 (Mitteleuropäische Sommerzeit),,,The main experiment item,2,False,0,0,C:\Users\maalt\OneDrive - Universität Wien\Dokumente\Uni\Psychologie\8. Semester\Bachelorarbeit\Experimente\Winsconsin\osweb-version,0,0,0,False,mono,False,18,no,white,no,no,768,724,1440,1,1,518133,3.8.6,a47ee561-4ea2-80d4-f47b-548d9201c9ec,osweb,0,color,osweb,,4,1,3,2,1,osweb,2.1.0,https://jatos.mindprobe.eu,,804,1440,0,1,1,1,0,0,1,0,d,green,c,c,3,d,circle,3524,17528,9310,3524,2,osweb,0,25,0,25,804,1440,24,900,24,0,25,1440,0,0,1716148075821,star,circle,cross,triangle,1024,2,48000,-16,experiment,,1,odd,MacIntel,42,183673,187202,183135,66302,187716,36681,54216,183673,183664,183664,187716,Wisconsin Card Sorting Test,36,95916,46,1024
,,79,79,2078,2078,#3d3846,Mozilla,Netscape,"5.0 (Macintosh; Intel Mac OS X 10_15_7) AppleWebKit/605.1.15 (KHTML, like Gecko) Version/16.3 Safari/605.1.15",osweb,osweb,0,red,yellow,blue,green,osweb,1,2,1,b,0,46,46,0,0,46,0,0,46,0,0,0,0,0,0,46,46,46,46,46,,0,19-05-24,19-05-24,21:47:07,Sun May 19 2024 21:47:07 GMT+0200 (Mitteleuropäische Sommerzeit),,,The main experiment item,2,False,0,0,C:\Users\maalt\OneDrive - Universität Wien\Dokumente\Uni\Psychologie\8. Semester\Bachelorarbeit\Experimente\Winsconsin\osweb-version,0,0,0,False,mono,False,18,no,white,no,no,768,724,1440,1,1,518133,3.8.6,a47ee561-4ea2-80d4-f47b-548d9201c9ec,osweb,0,color,osweb,,1,2,3,4,1,osweb,2.1.0,https://jatos.mindprobe.eu,,804,1440,1,1,0,1,0,0,1,0,b,yellow,c,c,1,b,cross,1745,17528,9310,1745,2,osweb,0,25,0,25,804,1440,24,900,24,0,25,1440,0,0,1716148075821,circle,star,triangle,cross,1024,2,48000,-16,experiment,,1,odd,MacIntel,42,187743,189502,183135,66302,190016,36681,54216,187743,187734,187734,190016,Wisconsin Card Sorting Test,37,97661,47,1024
,,79,79,2092,2092,#3d3846,Mozilla,Netscape,"5.0 (Macintosh; Intel Mac OS X 10_15_7) AppleWebKit/605.1.15 (KHTML, like Gecko) Version/16.3 Safari/605.1.15",osweb,osweb,0,blue,red,yellow,green,osweb,1,3,1,d,0,47,47,0,0,47,0,0,47,0,0,0,0,0,0,47,47,47,47,47,,0,19-05-24,19-05-24,21:47:07,Sun May 19 2024 21:47:07 GMT+0200 (Mitteleuropäische Sommerzeit),,,The main experiment item,2,False,0,0,C:\Users\maalt\OneDrive - Universität Wien\Dokumente\Uni\Psychologie\8. Semester\Bachelorarbeit\Experimente\Winsconsin\osweb-version,0,0,0,False,mono,False,18,no,white,no,no,768,724,1440,1,1,518133,3.8.6,a47ee561-4ea2-80d4-f47b-548d9201c9ec,osweb,0,color,osweb,,2,1,4,3,1,osweb,2.1.0,https://jatos.mindprobe.eu,,804,1440,0,1,1,1,0,0,1,0,d,green,c,c,4,d,star,2762,17528,9310,2762,2,osweb,0,25,0,25,804,1440,24,900,24,0,25,1440,0,0,1716148075821,circle,star,cross,triangle,1024,2,48000,-16,experiment,,1,odd,MacIntel,42,190043,192818,183135,66302,193333,36681,54216,190043,190034,190034,193333,Wisconsin Card Sorting Test,38,100423,48,1024
,,80,80,2080,2080,#3d3846,Mozilla,Netscape,"5.0 (Macintosh; Intel Mac OS X 10_15_7) AppleWebKit/605.1.15 (KHTML, like Gecko) Version/16.3 Safari/605.1.15",osweb,osweb,0,blue,yellow,red,green,osweb,1,4,1,d,0,48,48,0,0,48,0,0,48,0,0,0,0,0,0,48,48,48,48,48,,0,19-05-24,19-05-24,21:47:07,Sun May 19 2024 21:47:07 GMT+0200 (Mitteleuropäische Sommerzeit),,,The main experiment item,2,False,0,0,C:\Users\maalt\OneDrive - Universität Wien\Dokumente\Uni\Psychologie\8. Semester\Bachelorarbeit\Experimente\Winsconsin\osweb-version,0,0,0,False,mono,False,18,no,white,no,no,768,724,1440,1,1,518133,3.8.6,a47ee561-4ea2-80d4-f47b-548d9201c9ec,osweb,0,color,osweb,,4,3,2,1,1,osweb,2.1.0,https://jatos.mindprobe.eu,,804,1440,0,1,1,1,0,0,1,0,d,green,c,c,3,d,cross,1514,17528,9310,1514,2,osweb,0,25,0,25,804,1440,24,900,24,0,25,1440,0,0,1716148075821,star,triangle,cross,circle,1024,2,48000,-16,experiment,,1,odd,MacIntel,42,193357,194885,183135,66302,195399,36681,54216,193357,193347,193347,195399,Wisconsin Card Sorting Test,39,101937,49,1024
,,80,80,2076,2076,#3d3846,Mozilla,Netscape,"5.0 (Macintosh; Intel Mac OS X 10_15_7) AppleWebKit/605.1.15 (KHTML, like Gecko) Version/16.3 Safari/605.1.15",osweb,osweb,0,red,yellow,green,blue,osweb,1,0,1,b,0,49,49,0,0,49,0,0,49,0,0,0,0,0,0,49,49,49,49,49,,0,19-05-24,19-05-24,21:47:07,Sun May 19 2024 21:47:07 GMT+0200 (Mitteleuropäische Sommerzeit),,,The main experiment item,2,False,0,0,C:\Users\maalt\OneDrive - Universität Wien\Dokumente\Uni\Psychologie\8. Semester\Bachelorarbeit\Experimente\Winsconsin\osweb-version,0,0,0,False,mono,False,18,no,white,no,no,768,724,1440,1,1,518133,3.8.6,a47ee561-4ea2-80d4-f47b-548d9201c9ec,osweb,0,number,osweb,,2,1,4,3,1,osweb,2.1.0,https://jatos.mindprobe.eu,,804,1440,1,1,1,0,0,0,1,0,b,yellow,c,c,4,b,cross,1849,17528,9310,1849,2,osweb,0,25,0,25,804,1440,24,900,24,0,25,1440,0,0,1716148075821,cross,star,circle,triangle,1024,2,48000,-16,experiment,,1,odd,MacIntel,42,195422,197286,183135,66302,197800,36681,54216,195423,195413,195413,197800,Wisconsin Card Sorting Test,40,103786,50,1024
,,78,78,2068,2068,#3d3846,Mozilla,Netscape,"5.0 (Macintosh; Intel Mac OS X 10_15_7) AppleWebKit/605.1.15 (KHTML, like Gecko) Version/16.3 Safari/605.1.15",osweb,osweb,0,yellow,red,green,blue,osweb,0,0,0,d,0,50,50,0,0,50,0,0,50,0,0,0,0,0,0,50,50,50,50,50,,0,19-05-24,19-05-24,21:47:07,Sun May 19 2024 21:47:07 GMT+0200 (Mitteleuropäische Sommerzeit),,,The main experiment item,2,False,0,0,C:\Users\maalt\OneDrive - Universität Wien\Dokumente\Uni\Psychologie\8. Semester\Bachelorarbeit\Experimente\Winsconsin\osweb-version,0,0,0,False,mono,False,18,no,white,no,no,768,724,1440,1,1,518133,3.8.6,a47ee561-4ea2-80d4-f47b-548d9201c9ec,osweb,0,number,osweb,,4,2,1,3,1,osweb,2.1.0,https://jatos.mindprobe.eu,,804,1440,1,0,1,1,0,0,1,0,c,green,c,c,3,c,cross,1684,17528,9310,1684,2,osweb,0,25,0,25,804,1440,24,900,24,0,25,1440,0,0,1716148075821,cross,circle,triangle,star,1024,2,48000,-16,experiment,,1,odd,MacIntel,42,197824,197286,199517,66302,200033,36681,54216,197824,197814,197814,200032,Wisconsin Card Sorting Test,40,105470,51,1024
,,77,77,2102,2102,#3d3846,Mozilla,Netscape,"5.0 (Macintosh; Intel Mac OS X 10_15_7) AppleWebKit/605.1.15 (KHTML, like Gecko) Version/16.3 Safari/605.1.15",osweb,osweb,0,blue,yellow,green,red,osweb,0,0,0,c,0,51,51,0,0,51,0,0,51,0,0,0,0,0,0,51,51,51,51,51,,0,19-05-24,19-05-24,21:47:07,Sun May 19 2024 21:47:07 GMT+0200 (Mitteleuropäische Sommerzeit),,,The main experiment item,2,False,0,0,C:\Users\maalt\OneDrive - Universität Wien\Dokumente\Uni\Psychologie\8. Semester\Bachelorarbeit\Experimente\Winsconsin\osweb-version,0,0,0,False,mono,False,18,no,white,no,no,768,724,1440,1,1,518133,3.8.6,a47ee561-4ea2-80d4-f47b-548d9201c9ec,osweb,0,number,osweb,,1,4,3,2,1,osweb,2.1.0,https://jatos.mindprobe.eu,,804,1440,1,1,1,0,0,0,1,0,a,yellow,c,c,3,a,circle,3834,17528,9310,3834,2,osweb,0,25,0,25,804,1440,24,900,24,0,25,1440,0,0,1716148075821,circle,cross,star,triangle,1024,2,48000,-16,experiment,,1,odd,MacIntel,42,200059,197286,203901,66302,204417,36681,54216,200059,200050,200050,204416,Wisconsin Card Sorting Test,40,109304,52,1024
,,77,77,2111,2111,#3d3846,Mozilla,Netscape,"5.0 (Macintosh; Intel Mac OS X 10_15_7) AppleWebKit/605.1.15 (KHTML, like Gecko) Version/16.3 Safari/605.1.15",osweb,osweb,0,red,green,blue,yellow,osweb,1,1,1,c,0,52,52,0,0,52,0,0,52,0,0,0,0,0,0,52,52,52,52,52,,0,19-05-24,19-05-24,21:47:07,Sun May 19 2024 21:47:07 GMT+0200 (Mitteleuropäische Sommerzeit),,,The main experiment item,2,False,0,0,C:\Users\maalt\OneDrive - Universität Wien\Dokumente\Uni\Psychologie\8. Semester\Bachelorarbeit\Experimente\Winsconsin\osweb-version,0,0,0,False,mono,False,18,no,white,no,no,768,724,1440,1,1,518133,3.8.6,a47ee561-4ea2-80d4-f47b-548d9201c9ec,osweb,0,number,osweb,,3,2,1,4,1,osweb,2.1.0,https://jatos.mindprobe.eu,,804,1440,0,1,1,1,0,0,1,0,c,yellow,c,c,1,c,star,2570,17528,9310,2570,2,osweb,0,25,0,25,804,1440,24,900,24,0,25,1440,0,0,1716148075821,cross,star,circle,triangle,1024,2,48000,-16,experiment,,1,odd,MacIntel,42,204441,207020,203901,66302,207534,36681,54216,204441,204431,204431,207533,Wisconsin Card Sorting Test,41,111874,53,1024
,,78,78,2118,2118,#3d3846,Mozilla,Netscape,"5.0 (Macintosh; Intel Mac OS X 10_15_7) AppleWebKit/605.1.15 (KHTML, like Gecko) Version/16.3 Safari/605.1.15",osweb,osweb,0,red,blue,yellow,green,osweb,1,2,1,a,0,53,53,0,0,53,0,0,53,0,0,0,0,0,0,53,53,53,53,53,,0,19-05-24,19-05-24,21:47:07,Sun May 19 2024 21:47:07 GMT+0200 (Mitteleuropäische Sommerzeit),,,The main experiment item,2,False,0,0,C:\Users\maalt\OneDrive - Universität Wien\Dokumente\Uni\Psychologie\8. Semester\Bachelorarbeit\Experimente\Winsconsin\osweb-version,0,0,0,False,mono,False,18,no,white,no,no,768,724,1440,1,1,518133,3.8.6,a47ee561-4ea2-80d4-f47b-548d9201c9ec,osweb,0,number,osweb,,4,1,3,2,1,osweb,2.1.0,https://jatos.mindprobe.eu,,804,1440,1,1,0,1,0,0,1,0,a,green,c,c,4,a,star,2489,17528,9310,2489,2,osweb,0,25,0,25,804,1440,24,900,24,0,25,1440,0,0,1716148075821,triangle,star,cross,circle,1024,2,48000,-16,experiment,,1,odd,MacIntel,42,207561,210071,203901,66302,210584,36681,54216,207561,207552,207552,210583,Wisconsin Card Sorting Test,42,114363,54,1024
,,78,78,2102,2102,#3d3846,Mozilla,Netscape,"5.0 (Macintosh; Intel Mac OS X 10_15_7) AppleWebKit/605.1.15 (KHTML, like Gecko) Version/16.3 Safari/605.1.15",osweb,osweb,0,green,blue,red,yellow,osweb,1,3,1,a,0,54,54,0,0,54,0,0,54,0,0,0,0,0,0,54,54,54,54,54,,0,19-05-24,19-05-24,21:47:07,Sun May 19 2024 21:47:07 GMT+0200 (Mitteleuropäische Sommerzeit),,,The main experiment item,2,False,0,0,C:\Users\maalt\OneDrive - Universität Wien\Dokumente\Uni\Psychologie\8. Semester\Bachelorarbeit\Experimente\Winsconsin\osweb-version,0,0,0,False,mono,False,18,no,white,no,no,768,724,1440,1,1,518133,3.8.6,a47ee561-4ea2-80d4-f47b-548d9201c9ec,osweb,0,number,osweb,,1,3,4,2,1,osweb,2.1.0,https://jatos.mindprobe.eu,,804,1440,1,1,1,0,0,0,1,0,a,red,c,c,1,a,star,1223,17528,9310,1223,2,osweb,0,25,0,25,804,1440,24,900,24,0,25,1440,0,0,1716148075821,cross,star,triangle,circle,1024,2,48000,-16,experiment,,1,odd,MacIntel,42,210609,211835,203901,66302,212350,36681,54216,210609,210600,210600,212350,Wisconsin Card Sorting Test,43,115586,55,1024
,,79,79,2077,2077,#3d3846,Mozilla,Netscape,"5.0 (Macintosh; Intel Mac OS X 10_15_7) AppleWebKit/605.1.15 (KHTML, like Gecko) Version/16.3 Safari/605.1.15",osweb,osweb,0,green,yellow,blue,red,osweb,1,4,1,a,0,55,55,0,0,55,0,0,55,0,0,0,0,0,0,55,55,55,55,55,,0,19-05-24,19-05-24,21:47:07,Sun May 19 2024 21:47:07 GMT+0200 (Mitteleuropäische Sommerzeit),,,The main experiment item,2,False,0,0,C:\Users\maalt\OneDrive - Universität Wien\Dokumente\Uni\Psychologie\8. Semester\Bachelorarbeit\Experimente\Winsconsin\osweb-version,0,0,0,False,mono,False,18,no,white,no,no,768,724,1440,1,1,518133,3.8.6,a47ee561-4ea2-80d4-f47b-548d9201c9ec,osweb,0,number,osweb,,1,2,4,3,1,osweb,2.1.0,https://jatos.mindprobe.eu,,804,1440,1,0,1,1,0,0,1,0,a,red,c,c,1,a,star,738,17528,9310,738,2,osweb,0,25,0,25,804,1440,24,900,24,0,25,1440,0,0,1716148075821,triangle,circle,star,cross,1024,2,48000,-16,experiment,,1,odd,MacIntel,42,212374,213119,203901,66302,213634,36681,54216,212374,212365,212365,213634,Wisconsin Card Sorting Test,44,116324,56,1024
,,79,79,2069,2069,#3d3846,Mozilla,Netscape,"5.0 (Macintosh; Intel Mac OS X 10_15_7) AppleWebKit/605.1.15 (KHTML, like Gecko) Version/16.3 Safari/605.1.15",osweb,osweb,0,blue,yellow,red,green,osweb,1,0,1,b,0,56,56,0,0,56,0,0,56,0,0,0,0,0,0,56,56,56,56,56,,0,19-05-24,19-05-24,21:47:07,Sun May 19 2024 21:47:07 GMT+0200 (Mitteleuropäische Sommerzeit),,,The main experiment item,2,False,0,0,C:\Users\maalt\OneDrive - Universität Wien\Dokumente\Uni\Psychologie\8. Semester\Bachelorarbeit\Experimente\Winsconsin\osweb-version,0,0,0,False,mono,False,18,no,white,no,no,768,724,1440,1,1,518133,3.8.6,a47ee561-4ea2-80d4-f47b-548d9201c9ec,osweb,0,color,osweb,,1,2,3,4,1,osweb,2.1.0,https://jatos.mindprobe.eu,,804,1440,1,1,1,0,0,0,1,0,b,red,c,c,2,b,cross,1608,17528,9310,1608,2,osweb,0,25,0,25,804,1440,24,900,24,0,25,1440,0,0,1716148075821,cross,star,circle,triangle,1024,2,48000,-16,experiment,,1,odd,MacIntel,42,213659,215287,203901,66302,215801,36681,54216,213659,213649,213649,215800,Wisconsin Card Sorting Test,45,117932,57,1024
,,78,78,2064,2064,#3d3846,Mozilla,Netscape,"5.0 (Macintosh; Intel Mac OS X 10_15_7) AppleWebKit/605.1.15 (KHTML, like Gecko) Version/16.3 Safari/605.1.15",osweb,osweb,0,green,red,yellow,blue,osweb,0,0,0,a,0,57,57,0,0,57,0,0,57,0,0,0,0,0,0,57,57,57,57,57,,0,19-05-24,19-05-24,21:47:07,Sun May 19 2024 21:47:07 GMT+0200 (Mitteleuropäische Sommerzeit),,,The main experiment item,2,False,0,0,C:\Users\maalt\OneDrive - Universität Wien\Dokumente\Uni\Psychologie\8. Semester\Bachelorarbeit\Experimente\Winsconsin\osweb-version,0,0,0,False,mono,False,18,no,white,no,no,768,724,1440,1,1,518133,3.8.6,a47ee561-4ea2-80d4-f47b-548d9201c9ec,osweb,0,color,osweb,,2,1,3,4,1,osweb,2.1.0,https://jatos.mindprobe.eu,,804,1440,1,0,1,1,0,0,1,0,c,green,c,c,3,c,star,1768,17528,9310,1768,2,osweb,0,25,0,25,804,1440,24,900,24,0,25,1440,0,0,1716148075821,cross,triangle,circle,star,1024,2,48000,-16,experiment,,1,odd,MacIntel,42,215826,215287,217603,66302,218117,36681,54216,215827,215818,215818,218117,Wisconsin Card Sorting Test,45,119700,58,1024
,,76,76,2056,2056,#3d3846,Mozilla,Netscape,"5.0 (Macintosh; Intel Mac OS X 10_15_7) AppleWebKit/605.1.15 (KHTML, like Gecko) Version/16.3 Safari/605.1.15",osweb,osweb,0,red,green,blue,yellow,osweb,0,0,0,b,0,58,58,0,0,58,0,0,58,0,0,0,0,0,0,58,58,58,58,58,,0,19-05-24,19-05-24,21:47:07,Sun May 19 2024 21:47:07 GMT+0200 (Mitteleuropäische Sommerzeit),,,The main experiment item,2,False,0,0,C:\Users\maalt\OneDrive - Universität Wien\Dokumente\Uni\Psychologie\8. Semester\Bachelorarbeit\Experimente\Winsconsin\osweb-version,0,0,0,False,mono,False,18,no,white,no,no,768,724,1440,1,1,518133,3.8.6,a47ee561-4ea2-80d4-f47b-548d9201c9ec,osweb,0,color,osweb,,4,3,1,2,1,osweb,2.1.0,https://jatos.mindprobe.eu,,804,1440,0,1,1,1,0,0,1,0,d,green,c,c,2,d,triangle,1612,17528,9310,1612,2,osweb,0,25,0,25,804,1440,24,900,24,0,25,1440,0,0,1716148075821,star,cross,triangle,circle,1024,2,48000,-16,experiment,,1,odd,MacIntel,42,218140,215287,219768,66302,220284,36681,54216,218140,218131,218131,220283,Wisconsin Card Sorting Test,45,121312,59,1024
,,77,77,2057,2057,#3d3846,Mozilla,Netscape,"5.0 (Macintosh; Intel Mac OS X 10_15_7) AppleWebKit/605.1.15 (KHTML, like Gecko) Version/16.3 Safari/605.1.15",osweb,osweb,0,red,green,blue,yellow,osweb,1,1,1,b,0,59,59,0,0,59,0,0,59,0,0,0,0,0,0,59,59,59,59,59,,0,19-05-24,19-05-24,21:47:07,Sun May 19 2024 21:47:07 GMT+0200 (Mitteleuropäische Sommerzeit),,,The main experiment item,2,False,0,0,C:\Users\maalt\OneDrive - Universität Wien\Dokumente\Uni\Psychologie\8. Semester\Bachelorarbeit\Experimente\Winsconsin\osweb-version,0,0,0,False,mono,False,18,no,white,no,no,768,724,1440,1,1,518133,3.8.6,a47ee561-4ea2-80d4-f47b-548d9201c9ec,osweb,0,color,osweb,,1,4,3,2,1,osweb,2.1.0,https://jatos.mindprobe.eu,,804,1440,1,1,0,1,0,0,1,0,b,green,c,c,2,b,circle,2087,17528,9310,2087,2,osweb,0,25,0,25,804,1440,24,900,24,0,25,1440,0,0,1716148075821,circle,triangle,cross,star,1024,2,48000,-16,experiment,,1,odd,MacIntel,42,220308,222402,219768,66302,222917,36681,54216,220308,220298,220298,222917,Wisconsin Card Sorting Test,46,123399,60,1024
,,77,77,2047,2047,#3d3846,Mozilla,Netscape,"5.0 (Macintosh; Intel Mac OS X 10_15_7) AppleWebKit/605.1.15 (KHTML, like Gecko) Version/16.3 Safari/605.1.15",osweb,osweb,0,green,yellow,red,blue,osweb,1,2,1,b,0,60,60,0,0,60,0,0,60,0,0,0,0,0,0,60,60,60,60,60,,0,19-05-24,19-05-24,21:47:07,Sun May 19 2024 21:47:07 GMT+0200 (Mitteleuropäische Sommerzeit),,,The main experiment item,2,False,0,0,C:\Users\maalt\OneDrive - Universität Wien\Dokumente\Uni\Psychologie\8. Semester\Bachelorarbeit\Experimente\Winsconsin\osweb-version,0,0,0,False,mono,False,18,no,white,no,no,768,724,1440,1,1,518133,3.8.6,a47ee561-4ea2-80d4-f47b-548d9201c9ec,osweb,0,color,osweb,,2,3,1,4,1,osweb,2.1.0,https://jatos.mindprobe.eu,,804,1440,1,1,0,1,0,0,1,0,b,yellow,c,c,2,b,star,1468,17528,9310,1468,2,osweb,0,25,0,25,804,1440,24,900,24,0,25,1440,0,0,1716148075821,triangle,circle,cross,star,1024,2,48000,-16,experiment,,1,odd,MacIntel,42,222941,224420,219768,66302,224934,36681,54216,222941,222932,222932,224934,Wisconsin Card Sorting Test,47,124867,61,1024
,,77,77,2026,2026,#3d3846,Mozilla,Netscape,"5.0 (Macintosh; Intel Mac OS X 10_15_7) AppleWebKit/605.1.15 (KHTML, like Gecko) Version/16.3 Safari/605.1.15",osweb,osweb,0,yellow,blue,green,red,osweb,1,3,1,b,0,61,61,0,0,61,0,0,61,0,0,0,0,0,0,61,61,61,61,61,,0,19-05-24,19-05-24,21:47:07,Sun May 19 2024 21:47:07 GMT+0200 (Mitteleuropäische Sommerzeit),,,The main experiment item,2,False,0,0,C:\Users\maalt\OneDrive - Universität Wien\Dokumente\Uni\Psychologie\8. Semester\Bachelorarbeit\Experimente\Winsconsin\osweb-version,0,0,0,False,mono,False,18,no,white,no,no,768,724,1440,1,1,518133,3.8.6,a47ee561-4ea2-80d4-f47b-548d9201c9ec,osweb,0,color,osweb,,2,1,3,4,1,osweb,2.1.0,https://jatos.mindprobe.eu,,804,1440,1,1,1,0,0,0,1,0,b,blue,c,c,3,b,circle,744,17528,9310,744,2,osweb,0,25,0,25,804,1440,24,900,24,0,25,1440,0,0,1716148075821,circle,triangle,star,cross,1024,2,48000,-16,experiment,,1,odd,MacIntel,42,224958,225720,219768,66302,226234,36681,54216,224958,224948,224948,226234,Wisconsin Card Sorting Test,48,125611,62,1024
,,78,78,2009,2009,#3d3846,Mozilla,Netscape,"5.0 (Macintosh; Intel Mac OS X 10_15_7) AppleWebKit/605.1.15 (KHTML, like Gecko) Version/16.3 Safari/605.1.15",osweb,osweb,0,red,yellow,blue,green,osweb,1,4,1,b,0,62,62,0,0,62,0,0,62,0,0,0,0,0,0,62,62,62,62,62,,0,19-05-24,19-05-24,21:47:07,Sun May 19 2024 21:47:07 GMT+0200 (Mitteleuropäische Sommerzeit),,,The main experiment item,2,False,0,0,C:\Users\maalt\OneDrive - Universität Wien\Dokumente\Uni\Psychologie\8. Semester\Bachelorarbeit\Experimente\Winsconsin\osweb-version,0,0,0,False,mono,False,18,no,white,no,no,768,724,1440,1,1,518133,3.8.6,a47ee561-4ea2-80d4-f47b-548d9201c9ec,osweb,0,color,osweb,,3,4,1,2,1,osweb,2.1.0,https://jatos.mindprobe.eu,,804,1440,0,1,1,1,0,0,1,0,b,yellow,c,c,1,b,cross,932,17528,9310,932,2,osweb,0,25,0,25,804,1440,24,900,24,0,25,1440,0,0,1716148075821,circle,triangle,star,cross,1024,2,48000,-16,experiment,,1,odd,MacIntel,42,226259,227203,219768,66302,227718,36681,54216,226259,226249,226249,227717,Wisconsin Card Sorting Test,49,126543,63,1024
,,78,78,1994,1994,#3d3846,Mozilla,Netscape,"5.0 (Macintosh; Intel Mac OS X 10_15_7) AppleWebKit/605.1.15 (KHTML, like Gecko) Version/16.3 Safari/605.1.15",osweb,osweb,0,green,blue,yellow,red,osweb,1,0,1,a,0,63,63,0,0,63,0,0,63,0,0,0,0,0,0,63,63,63,63,63,,0,19-05-24,19-05-24,21:47:07,Sun May 19 2024 21:47:07 GMT+0200 (Mitteleuropäische Sommerzeit),,,The main experiment item,2,False,0,0,C:\Users\maalt\OneDrive - Universität Wien\Dokumente\Uni\Psychologie\8. Semester\Bachelorarbeit\Experimente\Winsconsin\osweb-version,0,0,0,False,mono,False,18,no,white,no,no,768,724,1440,1,1,518133,3.8.6,a47ee561-4ea2-80d4-f47b-548d9201c9ec,osweb,0,number,osweb,,2,4,3,1,1,osweb,2.1.0,https://jatos.mindprobe.eu,,804,1440,1,1,0,1,0,0,1,0,a,green,c,c,4,a,cross,1088,17528,9310,1088,2,osweb,0,25,0,25,804,1440,24,900,24,0,25,1440,0,0,1716148075821,star,circle,triangle,cross,1024,2,48000,-16,experiment,,1,odd,MacIntel,42,227741,228835,219768,66302,229351,36681,54216,227741,227731,227731,229351,Wisconsin Card Sorting Test,50,127631,64,1024
1,0,0,0,122803,122803,#3d3846,Mozilla,Netscape,"5.0 (Windows NT 10.0; Win64; x64) AppleWebKit/537.36 (KHTML, like Gecko) Chrome/124.0.0.0 Safari/537.36 Edg/124.0.0.0",osweb,osweb,0,blue,green,red,yellow,osweb,0,0,0,a,0,0,0,0,0,0,0,0,0,0,0,0,0,0,0,0,0,0,0,0,0,0,19-05-24,19-05-24,12:14:20,Sun May 19 2024 12:14:20 GMT+0200 (Mitteleuropäische Sommerzeit),,,The main experiment item,2,False,0,0,C:\Users\maalt\OneDrive - Universität Wien\Dokumente\Uni\Psychologie\8. Semester\Bachelorarbeit\Experimente\Winsconsin\osweb-version,0,0,0,False,mono,False,18,no,white,no,no,768,790,1360,1,1,517933,3.8.6,a47ee561-4ea2-80d4-f47b-548d9201c9ec,osweb,0,color,osweb,,4,3,2,1,,osweb,2.1.0,https://jatos.mindprobe.eu,1,864,1368,1,1,0,1,0,0,1,0,d,blue,enter,enter,3,d,triangle,122803,39062,12896,122803,2,osweb,0,0,0,0,864,1368,24,912,24,195,0,1368,0,0,1716113703431,circle,star,cross,triangle,1024,2,48000,-16,experiment,,0,even,Win32,52,108335,,231151,108288,231668,51643,90708,108335,108323,108323,231667,Wisconsin Card Sorting Test,0,122803,1,1024
1,0,50,50,63015,63015,#3d3846,Mozilla,Netscape,"5.0 (Windows NT 10.0; Win64; x64) AppleWebKit/537.36 (KHTML, like Gecko) Chrome/124.0.0.0 Safari/537.36 Edg/124.0.0.0",osweb,osweb,0,yellow,red,blue,green,osweb,1,1,1,a,0,1,1,0,0,1,0,0,1,0,0,0,0,0,0,1,1,1,1,1,0,0,19-05-24,19-05-24,12:14:20,Sun May 19 2024 12:14:20 GMT+0200 (Mitteleuropäische Sommerzeit),,,The main experiment item,2,False,0,0,C:\Users\maalt\OneDrive - Universität Wien\Dokumente\Uni\Psychologie\8. Semester\Bachelorarbeit\Experimente\Winsconsin\osweb-version,0,0,0,False,mono,False,18,no,white,no,no,768,790,1360,1,1,517933,3.8.6,a47ee561-4ea2-80d4-f47b-548d9201c9ec,osweb,0,color,osweb,,2,4,1,3,,osweb,2.1.0,https://jatos.mindprobe.eu,1,864,1368,1,1,1,0,0,0,1,0,a,yellow,enter,enter,4,a,circle,3227,39062,12896,3227,2,osweb,0,0,0,0,864,1368,24,912,24,195,0,1368,0,0,1716113703431,star,triangle,circle,cross,1024,2,48000,-16,experiment,,0,even,Win32,52,231716,234953,231151,108288,235470,51643,90708,231717,231709,231709,235469,Wisconsin Card Sorting Test,1,126030,2,1024
1,0,67,67,43419,43419,#3d3846,Mozilla,Netscape,"5.0 (Windows NT 10.0; Win64; x64) AppleWebKit/537.36 (KHTML, like Gecko) Chrome/124.0.0.0 Safari/537.36 Edg/124.0.0.0",osweb,osweb,0,yellow,red,blue,green,osweb,1,2,1,d,0,2,2,0,0,2,0,0,2,0,0,0,0,0,0,2,2,2,2,2,0,0,19-05-24,19-05-24,12:14:20,Sun May 19 2024 12:14:20 GMT+0200 (Mitteleuropäische Sommerzeit),,,The main experiment item,2,False,0,0,C:\Users\maalt\OneDrive - Universität Wien\Dokumente\Uni\Psychologie\8. Semester\Bachelorarbeit\Experimente\Winsconsin\osweb-version,0,0,0,False,mono,False,18,no,white,no,no,768,790,1360,1,1,517933,3.8.6,a47ee561-4ea2-80d4-f47b-548d9201c9ec,osweb,0,color,osweb,,1,4,3,2,,osweb,2.1.0,https://jatos.mindprobe.eu,1,864,1368,1,0,1,1,0,0,1,0,d,green,enter,enter,1,d,triangle,4228,39062,12896,4228,2,osweb,0,0,0,0,864,1368,24,912,24,195,0,1368,0,0,1716113703431,circle,cross,triangle,star,1024,2,48000,-16,experiment,,0,even,Win32,52,235505,239739,231151,108288,240256,51643,90708,235505,235489,235489,240256,Wisconsin Card Sorting Test,2,130258,3,1024
1,0,75,75,33932,33932,#3d3846,Mozilla,Netscape,"5.0 (Windows NT 10.0; Win64; x64) AppleWebKit/537.36 (KHTML, like Gecko) Chrome/124.0.0.0 Safari/537.36 Edg/124.0.0.0",osweb,osweb,0,green,blue,yellow,red,osweb,1,3,1,d,0,3,3,0,0,3,0,0,3,0,0,0,0,0,0,3,3,3,3,3,0,0,19-05-24,19-05-24,12:14:20,Sun May 19 2024 12:14:20 GMT+0200 (Mitteleuropäische Sommerzeit),,,The main experiment item,2,False,0,0,C:\Users\maalt\OneDrive - Universität Wien\Dokumente\Uni\Psychologie\8. Semester\Bachelorarbeit\Experimente\Winsconsin\osweb-version,0,0,0,False,mono,False,18,no,white,no,no,768,790,1360,1,1,517933,3.8.6,a47ee561-4ea2-80d4-f47b-548d9201c9ec,osweb,0,color,osweb,,4,1,3,2,,osweb,2.1.0,https://jatos.mindprobe.eu,1,864,1368,1,1,0,1,0,0,1,0,d,red,enter,enter,4,d,star,5468,39062,12896,5468,2,osweb,0,0,0,0,864,1368,24,912,24,195,0,1368,0,0,1716113703431,cross,star,triangle,circle,1024,2,48000,-16,experiment,,0,even,Win32,52,240288,245760,231151,108288,246277,51643,90708,240288,240275,240275,246277,Wisconsin Card Sorting Test,3,135726,4,1024
1,0,80,80,27710,27710,#3d3846,Mozilla,Netscape,"5.0 (Windows NT 10.0; Win64; x64) AppleWebKit/537.36 (KHTML, like Gecko) Chrome/124.0.0.0 Safari/537.36 Edg/124.0.0.0",osweb,osweb,0,red,blue,green,yellow,osweb,1,4,1,d,0,4,4,0,0,4,0,0,4,0,0,0,0,0,0,4,4,4,4,4,0,0,19-05-24,19-05-24,12:14:20,Sun May 19 2024 12:14:20 GMT+0200 (Mitteleuropäische Sommerzeit),,,The main experiment item,2,False,0,0,C:\Users\maalt\OneDrive - Universität Wien\Dokumente\Uni\Psychologie\8. Semester\Bachelorarbeit\Experimente\Winsconsin\osweb-version,0,0,0,False,mono,False,18,no,white,no,no,768,790,1360,1,1,517933,3.8.6,a47ee561-4ea2-80d4-f47b-548d9201c9ec,osweb,0,color,osweb,,3,2,1,4,,osweb,2.1.0,https://jatos.mindprobe.eu,1,864,1368,1,1,0,1,0,0,1,0,d,yellow,enter,enter,3,d,cross,2825,39062,12896,2825,2,osweb,0,0,0,0,864,1368,24,912,24,195,0,1368,0,0,1716113703431,triangle,cross,circle,star,1024,2,48000,-16,experiment,,0,even,Win32,52,246308,249146,231151,108288,249663,51643,90708,246308,246296,246296,249662,Wisconsin Card Sorting Test,4,138551,5,1024
1,0,83,83,23537,23537,#3d3846,Mozilla,Netscape,"5.0 (Windows NT 10.0; Win64; x64) AppleWebKit/537.36 (KHTML, like Gecko) Chrome/124.0.0.0 Safari/537.36 Edg/124.0.0.0",osweb,osweb,0,yellow,blue,green,red,osweb,1,0,1,a,0,5,5,0,0,5,0,0,5,0,0,0,0,0,0,5,5,5,5,5,0,0,19-05-24,19-05-24,12:14:20,Sun May 19 2024 12:14:20 GMT+0200 (Mitteleuropäische Sommerzeit),,,The main experiment item,2,False,0,0,C:\Users\maalt\OneDrive - Universität Wien\Dokumente\Uni\Psychologie\8. Semester\Bachelorarbeit\Experimente\Winsconsin\osweb-version,0,0,0,False,mono,False,18,no,white,no,no,768,790,1360,1,1,517933,3.8.6,a47ee561-4ea2-80d4-f47b-548d9201c9ec,osweb,0,shape,osweb,,4,3,2,1,,osweb,2.1.0,https://jatos.mindprobe.eu,1,864,1368,1,1,1,0,0,0,1,0,a,yellow,enter,enter,3,a,triangle,2673,39062,12896,2673,2,osweb,0,0,0,0,864,1368,24,912,24,195,0,1368,0,0,1716113703431,star,circle,triangle,cross,1024,2,48000,-16,experiment,,0,even,Win32,52,249690,252365,231151,108288,252881,51643,90708,249690,249681,249681,252881,Wisconsin Card Sorting Test,5,141224,6,1024
1,0,71,71,20619,20619,#3d3846,Mozilla,Netscape,"5.0 (Windows NT 10.0; Win64; x64) AppleWebKit/537.36 (KHTML, like Gecko) Chrome/124.0.0.0 Safari/537.36 Edg/124.0.0.0",osweb,osweb,0,blue,green,yellow,red,osweb,0,0,0,d,0,6,6,0,0,6,0,0,6,0,0,0,0,0,0,6,6,6,6,6,0,0,19-05-24,19-05-24,12:14:20,Sun May 19 2024 12:14:20 GMT+0200 (Mitteleuropäische Sommerzeit),,,The main experiment item,2,False,0,0,C:\Users\maalt\OneDrive - Universität Wien\Dokumente\Uni\Psychologie\8. Semester\Bachelorarbeit\Experimente\Winsconsin\osweb-version,0,0,0,False,mono,False,18,no,white,no,no,768,790,1360,1,1,517933,3.8.6,a47ee561-4ea2-80d4-f47b-548d9201c9ec,osweb,0,shape,osweb,,2,3,4,1,,osweb,2.1.0,https://jatos.mindprobe.eu,1,864,1368,1,1,0,1,0,0,1,0,b,green,enter,enter,2,b,cross,3109,39062,12896,3109,2,osweb,0,0,0,0,864,1368,24,912,24,195,0,1368,0,0,1716113703431,star,triangle,circle,cross,1024,2,48000,-16,experiment,,0,even,Win32,52,252906,252365,256017,108288,256534,51643,90708,252906,252897,252897,256534,Wisconsin Card Sorting Test,5,144333,7,1024
1,0,75,75,18511,18511,#3d3846,Mozilla,Netscape,"5.0 (Windows NT 10.0; Win64; x64) AppleWebKit/537.36 (KHTML, like Gecko) Chrome/124.0.0.0 Safari/537.36 Edg/124.0.0.0",osweb,osweb,0,yellow,green,blue,red,osweb,1,1,1,b,0,7,7,0,0,7,0,0,7,0,0,0,0,0,0,7,7,7,7,7,0,0,19-05-24,19-05-24,12:14:20,Sun May 19 2024 12:14:20 GMT+0200 (Mitteleuropäische Sommerzeit),,,The main experiment item,2,False,0,0,C:\Users\maalt\OneDrive - Universität Wien\Dokumente\Uni\Psychologie\8. Semester\Bachelorarbeit\Experimente\Winsconsin\osweb-version,0,0,0,False,mono,False,18,no,white,no,no,768,790,1360,1,1,517933,3.8.6,a47ee561-4ea2-80d4-f47b-548d9201c9ec,osweb,0,shape,osweb,,2,3,1,4,,osweb,2.1.0,https://jatos.mindprobe.eu,1,864,1368,1,1,0,1,0,0,1,0,b,red,enter,enter,2,b,triangle,3754,39062,12896,3754,2,osweb,0,0,0,0,864,1368,24,912,24,195,0,1368,0,0,1716113703431,cross,triangle,circle,star,1024,2,48000,-16,experiment,,0,even,Win32,52,256558,260325,256017,108288,260837,51643,90708,256559,256552,256552,260837,Wisconsin Card Sorting Test,6,148087,8,1024
1,0,78,78,16877,16877,#3d3846,Mozilla,Netscape,"5.0 (Windows NT 10.0; Win64; x64) AppleWebKit/537.36 (KHTML, like Gecko) Chrome/124.0.0.0 Safari/537.36 Edg/124.0.0.0",osweb,osweb,0,yellow,red,blue,green,osweb,1,2,1,b,0,8,8,0,0,8,0,0,8,0,0,0,0,0,0,8,8,8,8,8,0,0,19-05-24,19-05-24,12:14:20,Sun May 19 2024 12:14:20 GMT+0200 (Mitteleuropäische Sommerzeit),,,The main experiment item,2,False,0,0,C:\Users\maalt\OneDrive - Universität Wien\Dokumente\Uni\Psychologie\8. Semester\Bachelorarbeit\Experimente\Winsconsin\osweb-version,0,0,0,False,mono,False,18,no,white,no,no,768,790,1360,1,1,517933,3.8.6,a47ee561-4ea2-80d4-f47b-548d9201c9ec,osweb,0,shape,osweb,,1,2,3,4,,osweb,2.1.0,https://jatos.mindprobe.eu,1,864,1368,1,1,1,0,0,0,1,0,b,yellow,enter,enter,3,b,triangle,3802,39062,12896,3802,2,osweb,0,0,0,0,864,1368,24,912,24,195,0,1368,0,0,1716113703431,circle,triangle,star,cross,1024,2,48000,-16,experiment,,0,even,Win32,52,260861,264673,256017,108288,265190,51643,90708,260861,260856,260857,265190,Wisconsin Card Sorting Test,7,151889,9,1024
1,0,80,80,15641,15641,#3d3846,Mozilla,Netscape,"5.0 (Windows NT 10.0; Win64; x64) AppleWebKit/537.36 (KHTML, like Gecko) Chrome/124.0.0.0 Safari/537.36 Edg/124.0.0.0",osweb,osweb,0,red,yellow,green,blue,osweb,1,3,1,a,0,9,9,0,0,9,0,0,9,0,0,0,0,0,0,9,9,9,9,9,0,0,19-05-24,19-05-24,12:14:20,Sun May 19 2024 12:14:20 GMT+0200 (Mitteleuropäische Sommerzeit),,,The main experiment item,2,False,0,0,C:\Users\maalt\OneDrive - Universität Wien\Dokumente\Uni\Psychologie\8. Semester\Bachelorarbeit\Experimente\Winsconsin\osweb-version,0,0,0,False,mono,False,18,no,white,no,no,768,790,1360,1,1,517933,3.8.6,a47ee561-4ea2-80d4-f47b-548d9201c9ec,osweb,0,shape,osweb,,2,3,4,1,,osweb,2.1.0,https://jatos.mindprobe.eu,1,864,1368,1,1,1,0,0,0,1,0,a,green,enter,enter,3,a,cross,4525,39062,12896,4525,2,osweb,0,0,0,0,864,1368,24,912,24,195,0,1368,0,0,1716113703431,cross,circle,triangle,star,1024,2,48000,-16,experiment,,0,even,Win32,52,265221,269760,256017,108288,270277,51643,90708,265221,265209,265209,270277,Wisconsin Card Sorting Test,8,156414,10,1024
1,0,82,82,14516,14516,#3d3846,Mozilla,Netscape,"5.0 (Windows NT 10.0; Win64; x64) AppleWebKit/537.36 (KHTML, like Gecko) Chrome/124.0.0.0 Safari/537.36 Edg/124.0.0.0",osweb,osweb,0,green,red,blue,yellow,osweb,1,4,1,a,0,10,10,0,0,10,0,0,10,0,0,0,0,0,0,10,10,10,10,10,0,0,19-05-24,19-05-24,12:14:20,Sun May 19 2024 12:14:20 GMT+0200 (Mitteleuropäische Sommerzeit),,,The main experiment item,2,False,0,0,C:\Users\maalt\OneDrive - Universität Wien\Dokumente\Uni\Psychologie\8. Semester\Bachelorarbeit\Experimente\Winsconsin\osweb-version,0,0,0,False,mono,False,18,no,white,no,no,768,790,1360,1,1,517933,3.8.6,a47ee561-4ea2-80d4-f47b-548d9201c9ec,osweb,0,shape,osweb,,1,4,3,2,,osweb,2.1.0,https://jatos.mindprobe.eu,1,864,1368,1,1,0,1,0,0,1,0,a,red,enter,enter,2,a,triangle,3267,39062,12896,3267,2,osweb,0,0,0,0,864,1368,24,912,24,195,0,1368,0,0,1716113703431,triangle,circle,cross,star,1024,2,48000,-16,experiment,,0,even,Win32,52,270306,273579,256017,108288,274096,51643,90708,270306,270295,270295,274096,Wisconsin Card Sorting Test,9,159681,11,1024
1,0,83,83,13537,13537,#3d3846,Mozilla,Netscape,"5.0 (Windows NT 10.0; Win64; x64) AppleWebKit/537.36 (KHTML, like Gecko) Chrome/124.0.0.0 Safari/537.36 Edg/124.0.0.0",osweb,osweb,0,green,red,blue,yellow,osweb,1,0,1,c,0,11,11,0,0,11,0,0,11,0,0,0,0,0,0,11,11,11,11,11,0,0,19-05-24,19-05-24,12:14:20,Sun May 19 2024 12:14:20 GMT+0200 (Mitteleuropäische Sommerzeit),,,The main experiment item,2,False,0,0,C:\Users\maalt\OneDrive - Universität Wien\Dokumente\Uni\Psychologie\8. Semester\Bachelorarbeit\Experimente\Winsconsin\osweb-version,0,0,0,False,mono,False,18,no,white,no,no,768,790,1360,1,1,517933,3.8.6,a47ee561-4ea2-80d4-f47b-548d9201c9ec,osweb,0,color,osweb,,3,2,1,4,,osweb,2.1.0,https://jatos.mindprobe.eu,1,864,1368,1,0,1,1,0,0,1,0,c,yellow,enter,enter,3,c,star,2766,39062,12896,2766,2,osweb,0,0,0,0,864,1368,24,912,24,195,0,1368,0,0,1716113703431,triangle,cross,star,circle,1024,2,48000,-16,experiment,,0,even,Win32,52,274118,276898,256017,108288,277415,51643,90708,274118,274113,274114,277415,Wisconsin Card Sorting Test,10,162447,12,1024
1,0,77,77,12836,12836,#3d3846,Mozilla,Netscape,"5.0 (Windows NT 10.0; Win64; x64) AppleWebKit/537.36 (KHTML, like Gecko) Chrome/124.0.0.0 Safari/537.36 Edg/124.0.0.0",osweb,osweb,0,green,yellow,red,blue,osweb,0,0,0,b,0,12,12,0,0,12,0,0,12,0,0,0,0,0,0,12,12,12,12,12,0,0,19-05-24,19-05-24,12:14:20,Sun May 19 2024 12:14:20 GMT+0200 (Mitteleuropäische Sommerzeit),,,The main experiment item,2,False,0,0,C:\Users\maalt\OneDrive - Universität Wien\Dokumente\Uni\Psychologie\8. Semester\Bachelorarbeit\Experimente\Winsconsin\osweb-version,0,0,0,False,mono,False,18,no,white,no,no,768,790,1360,1,1,517933,3.8.6,a47ee561-4ea2-80d4-f47b-548d9201c9ec,osweb,0,color,osweb,,4,3,2,1,,osweb,2.1.0,https://jatos.mindprobe.eu,1,864,1368,1,1,1,0,0,0,1,0,c,yellow,enter,enter,4,c,circle,4419,39062,12896,4419,2,osweb,0,0,0,0,864,1368,24,912,24,195,0,1368,0,0,1716113703431,star,cross,circle,triangle,1024,2,48000,-16,experiment,,0,even,Win32,52,277446,276898,281869,108288,282385,51643,90708,277446,277436,277436,282385,Wisconsin Card Sorting Test,10,166866,13,1024
1,0,71,71,12182,12182,#3d3846,Mozilla,Netscape,"5.0 (Windows NT 10.0; Win64; x64) AppleWebKit/537.36 (KHTML, like Gecko) Chrome/124.0.0.0 Safari/537.36 Edg/124.0.0.0",osweb,osweb,0,blue,green,red,yellow,osweb,0,0,0,c,0,13,13,0,0,13,0,0,13,0,0,0,0,0,0,13,13,13,13,13,0,0,19-05-24,19-05-24,12:14:20,Sun May 19 2024 12:14:20 GMT+0200 (Mitteleuropäische Sommerzeit),,,The main experiment item,2,False,0,0,C:\Users\maalt\OneDrive - Universität Wien\Dokumente\Uni\Psychologie\8. Semester\Bachelorarbeit\Experimente\Winsconsin\osweb-version,0,0,0,False,mono,False,18,no,white,no,no,768,790,1360,1,1,517933,3.8.6,a47ee561-4ea2-80d4-f47b-548d9201c9ec,osweb,0,color,osweb,,3,1,2,4,,osweb,2.1.0,https://jatos.mindprobe.eu,1,864,1368,0,1,1,1,0,0,1,0,d,red,enter,enter,1,d,triangle,3678,39062,12896,3678,2,osweb,0,0,0,0,864,1368,24,912,24,195,0,1368,0,0,1716113703431,circle,cross,star,triangle,1024,2,48000,-16,experiment,,0,even,Win32,52,282415,276898,286105,108288,286621,51643,90708,282415,282404,282404,286621,Wisconsin Card Sorting Test,10,170544,14,1024
1,0,73,73,11512,11512,#3d3846,Mozilla,Netscape,"5.0 (Windows NT 10.0; Win64; x64) AppleWebKit/537.36 (KHTML, like Gecko) Chrome/124.0.0.0 Safari/537.36 Edg/124.0.0.0",osweb,osweb,0,blue,green,red,yellow,osweb,1,1,1,c,0,14,14,0,0,14,0,0,14,0,0,0,0,0,0,14,14,14,14,14,0,0,19-05-24,19-05-24,12:14:20,Sun May 19 2024 12:14:20 GMT+0200 (Mitteleuropäische Sommerzeit),,,The main experiment item,2,False,0,0,C:\Users\maalt\OneDrive - Universität Wien\Dokumente\Uni\Psychologie\8. Semester\Bachelorarbeit\Experimente\Winsconsin\osweb-version,0,0,0,False,mono,False,18,no,white,no,no,768,790,1360,1,1,517933,3.8.6,a47ee561-4ea2-80d4-f47b-548d9201c9ec,osweb,0,color,osweb,,1,2,3,4,,osweb,2.1.0,https://jatos.mindprobe.eu,1,864,1368,1,0,1,1,0,0,1,0,c,red,enter,enter,4,c,cross,2138,39062,12896,2138,2,osweb,0,0,0,0,864,1368,24,912,24,195,0,1368,0,0,1716113703431,cross,triangle,circle,star,1024,2,48000,-16,experiment,,0,even,Win32,52,286655,288807,286105,108288,289323,51643,90708,286655,286648,286648,289323,Wisconsin Card Sorting Test,11,172682,15,1024
1,0,75,75,10890,10890,#3d3846,Mozilla,Netscape,"5.0 (Windows NT 10.0; Win64; x64) AppleWebKit/537.36 (KHTML, like Gecko) Chrome/124.0.0.0 Safari/537.36 Edg/124.0.0.0",osweb,osweb,0,red,blue,yellow,green,osweb,1,2,1,a,0,15,15,0,0,15,0,0,15,0,0,0,0,0,0,15,15,15,15,15,0,0,19-05-24,19-05-24,12:14:20,Sun May 19 2024 12:14:20 GMT+0200 (Mitteleuropäische Sommerzeit),,,The main experiment item,2,False,0,0,C:\Users\maalt\OneDrive - Universität Wien\Dokumente\Uni\Psychologie\8. Semester\Bachelorarbeit\Experimente\Winsconsin\osweb-version,0,0,0,False,mono,False,18,no,white,no,no,768,790,1360,1,1,517933,3.8.6,a47ee561-4ea2-80d4-f47b-548d9201c9ec,osweb,0,color,osweb,,2,3,4,1,,osweb,2.1.0,https://jatos.mindprobe.eu,1,864,1368,1,1,1,0,0,0,1,0,a,red,enter,enter,3,a,triangle,1564,39062,12896,1564,2,osweb,0,0,0,0,864,1368,24,912,24,195,0,1368,0,0,1716113703431,star,cross,triangle,circle,1024,2,48000,-16,experiment,,0,even,Win32,52,289349,290925,286105,108288,291441,51643,90708,289349,289342,289342,291441,Wisconsin Card Sorting Test,12,174246,16,1024
1,0,76,76,10563,10563,#3d3846,Mozilla,Netscape,"5.0 (Windows NT 10.0; Win64; x64) AppleWebKit/537.36 (KHTML, like Gecko) Chrome/124.0.0.0 Safari/537.36 Edg/124.0.0.0",osweb,osweb,0,blue,green,red,yellow,osweb,1,3,1,d,0,16,16,0,0,16,0,0,16,0,0,0,0,0,0,16,16,16,16,16,0,0,19-05-24,19-05-24,12:14:20,Sun May 19 2024 12:14:20 GMT+0200 (Mitteleuropäische Sommerzeit),,,The main experiment item,2,False,0,0,C:\Users\maalt\OneDrive - Universität Wien\Dokumente\Uni\Psychologie\8. Semester\Bachelorarbeit\Experimente\Winsconsin\osweb-version,0,0,0,False,mono,False,18,no,white,no,no,768,790,1360,1,1,517933,3.8.6,a47ee561-4ea2-80d4-f47b-548d9201c9ec,osweb,0,color,osweb,,1,4,3,2,,osweb,2.1.0,https://jatos.mindprobe.eu,1,864,1368,1,1,0,1,0,0,1,0,d,yellow,enter,enter,1,d,circle,5333,39062,12896,5333,2,osweb,0,0,0,0,864,1368,24,912,24,195,0,1368,0,0,1716113703431,triangle,circle,star,cross,1024,2,48000,-16,experiment,,0,even,Win32,52,291462,296812,286105,108288,297329,51643,90708,291462,291454,291454,297329,Wisconsin Card Sorting Test,13,179579,17,1024
1,0,78,78,10103,10103,#3d3846,Mozilla,Netscape,"5.0 (Windows NT 10.0; Win64; x64) AppleWebKit/537.36 (KHTML, like Gecko) Chrome/124.0.0.0 Safari/537.36 Edg/124.0.0.0",osweb,osweb,0,blue,yellow,red,green,osweb,1,4,1,d,0,17,17,0,0,17,0,0,17,0,0,0,0,0,0,17,17,17,17,17,0,0,19-05-24,19-05-24,12:14:20,Sun May 19 2024 12:14:20 GMT+0200 (Mitteleuropäische Sommerzeit),,,The main experiment item,2,False,0,0,C:\Users\maalt\OneDrive - Universität Wien\Dokumente\Uni\Psychologie\8. Semester\Bachelorarbeit\Experimente\Winsconsin\osweb-version,0,0,0,False,mono,False,18,no,white,no,no,768,790,1360,1,1,517933,3.8.6,a47ee561-4ea2-80d4-f47b-548d9201c9ec,osweb,0,color,osweb,,3,2,1,4,,osweb,2.1.0,https://jatos.mindprobe.eu,1,864,1368,1,1,0,1,0,0,1,0,d,green,enter,enter,3,d,circle,2268,39062,12896,2268,2,osweb,0,0,0,0,864,1368,24,912,24,195,0,1368,0,0,1716113703431,cross,circle,triangle,star,1024,2,48000,-16,experiment,,0,even,Win32,52,297355,299630,286105,108288,300147,51643,90708,297356,297347,297347,300147,Wisconsin Card Sorting Test,14,181847,18,1024
1,0,79,79,9805,9805,#3d3846,Mozilla,Netscape,"5.0 (Windows NT 10.0; Win64; x64) AppleWebKit/537.36 (KHTML, like Gecko) Chrome/124.0.0.0 Safari/537.36 Edg/124.0.0.0",osweb,osweb,0,green,red,blue,yellow,osweb,1,0,1,b,0,18,18,0,0,18,0,0,18,0,0,0,0,0,0,18,18,18,18,18,0,0,19-05-24,19-05-24,12:14:20,Sun May 19 2024 12:14:20 GMT+0200 (Mitteleuropäische Sommerzeit),,,The main experiment item,2,False,0,0,C:\Users\maalt\OneDrive - Universität Wien\Dokumente\Uni\Psychologie\8. Semester\Bachelorarbeit\Experimente\Winsconsin\osweb-version,0,0,0,False,mono,False,18,no,white,no,no,768,790,1360,1,1,517933,3.8.6,a47ee561-4ea2-80d4-f47b-548d9201c9ec,osweb,0,number,osweb,,2,1,3,4,,osweb,2.1.0,https://jatos.mindprobe.eu,1,864,1368,0,1,1,1,0,0,1,0,b,red,enter,enter,4,b,cross,4457,39062,12896,4457,2,osweb,0,0,0,0,864,1368,24,912,24,195,0,1368,0,0,1716113703431,circle,triangle,cross,star,1024,2,48000,-16,experiment,,0,even,Win32,52,300166,304634,286105,108288,305151,51643,90708,300166,300162,300162,305150,Wisconsin Card Sorting Test,15,186304,19,1024
1,0,75,75,9465,9465,#3d3846,Mozilla,Netscape,"5.0 (Windows NT 10.0; Win64; x64) AppleWebKit/537.36 (KHTML, like Gecko) Chrome/124.0.0.0 Safari/537.36 Edg/124.0.0.0",osweb,osweb,0,red,blue,green,yellow,osweb,0,0,0,b,0,19,19,0,0,19,0,0,19,0,0,0,0,0,0,19,19,19,19,19,0,0,19-05-24,19-05-24,12:14:20,Sun May 19 2024 12:14:20 GMT+0200 (Mitteleuropäische Sommerzeit),,,The main experiment item,2,False,0,0,C:\Users\maalt\OneDrive - Universität Wien\Dokumente\Uni\Psychologie\8. Semester\Bachelorarbeit\Experimente\Winsconsin\osweb-version,0,0,0,False,mono,False,18,no,white,no,no,768,790,1360,1,1,517933,3.8.6,a47ee561-4ea2-80d4-f47b-548d9201c9ec,osweb,0,number,osweb,,3,2,4,1,,osweb,2.1.0,https://jatos.mindprobe.eu,1,864,1368,1,1,1,0,0,0,1,0,c,red,enter,enter,2,c,circle,2990,39062,12896,2990,2,osweb,0,0,0,0,864,1368,24,912,24,195,0,1368,0,0,1716113703431,triangle,star,circle,cross,1024,2,48000,-16,experiment,,0,even,Win32,52,305175,304634,308169,108288,308686,51643,90708,305175,305169,305169,308686,Wisconsin Card Sorting Test,15,189294,20,1024
1,0,71,71,9152,9152,#3d3846,Mozilla,Netscape,"5.0 (Windows NT 10.0; Win64; x64) AppleWebKit/537.36 (KHTML, like Gecko) Chrome/124.0.0.0 Safari/537.36 Edg/124.0.0.0",osweb,osweb,0,green,blue,red,yellow,osweb,0,0,0,a,0,20,20,0,0,20,0,0,20,0,0,0,0,0,0,20,20,20,20,20,0,0,19-05-24,19-05-24,12:14:20,Sun May 19 2024 12:14:20 GMT+0200 (Mitteleuropäische Sommerzeit),,,The main experiment item,2,False,0,0,C:\Users\maalt\OneDrive - Universität Wien\Dokumente\Uni\Psychologie\8. Semester\Bachelorarbeit\Experimente\Winsconsin\osweb-version,0,0,0,False,mono,False,18,no,white,no,no,768,790,1360,1,1,517933,3.8.6,a47ee561-4ea2-80d4-f47b-548d9201c9ec,osweb,0,number,osweb,,2,4,3,1,,osweb,2.1.0,https://jatos.mindprobe.eu,1,864,1368,1,1,1,0,0,0,1,0,c,red,enter,enter,2,c,cross,2890,39062,12896,2890,2,osweb,0,0,0,0,864,1368,24,912,24,195,0,1368,0,0,1716113703431,circle,cross,star,triangle,1024,2,48000,-16,experiment,,0,even,Win32,52,308712,304634,311606,108288,312122,51643,90708,308713,308706,308706,312122,Wisconsin Card Sorting Test,15,192184,21,1024
1,0,68,68,9029,9029,#3d3846,Mozilla,Netscape,"5.0 (Windows NT 10.0; Win64; x64) AppleWebKit/537.36 (KHTML, like Gecko) Chrome/124.0.0.0 Safari/537.36 Edg/124.0.0.0",osweb,osweb,0,yellow,blue,red,green,osweb,0,0,0,d,0,21,21,0,0,21,0,0,21,0,0,0,0,0,0,21,21,21,21,21,0,0,19-05-24,19-05-24,12:14:20,Sun May 19 2024 12:14:20 GMT+0200 (Mitteleuropäische Sommerzeit),,,The main experiment item,2,False,0,0,C:\Users\maalt\OneDrive - Universität Wien\Dokumente\Uni\Psychologie\8. Semester\Bachelorarbeit\Experimente\Winsconsin\osweb-version,0,0,0,False,mono,False,18,no,white,no,no,768,790,1360,1,1,517933,3.8.6,a47ee561-4ea2-80d4-f47b-548d9201c9ec,osweb,0,number,osweb,,1,4,2,3,,osweb,2.1.0,https://jatos.mindprobe.eu,1,864,1368,1,0,1,1,0,0,1,0,a,red,enter,enter,3,a,cross,6458,39062,12896,6458,2,osweb,0,0,0,0,864,1368,24,912,24,195,0,1368,0,0,1716113703431,cross,circle,triangle,star,1024,2,48000,-16,experiment,,0,even,Win32,52,312155,304634,318626,108288,319127,51643,90708,312155,312148,312148,319127,Wisconsin Card Sorting Test,15,198642,22,1024
1,0,65,65,8707,8707,#3d3846,Mozilla,Netscape,"5.0 (Windows NT 10.0; Win64; x64) AppleWebKit/537.36 (KHTML, like Gecko) Chrome/124.0.0.0 Safari/537.36 Edg/124.0.0.0",osweb,osweb,0,red,yellow,green,blue,osweb,0,0,0,a,0,22,22,0,0,22,0,0,22,0,0,0,0,0,0,22,22,22,22,22,0,0,19-05-24,19-05-24,12:14:20,Sun May 19 2024 12:14:20 GMT+0200 (Mitteleuropäische Sommerzeit),,,The main experiment item,2,False,0,0,C:\Users\maalt\OneDrive - Universität Wien\Dokumente\Uni\Psychologie\8. Semester\Bachelorarbeit\Experimente\Winsconsin\osweb-version,0,0,0,False,mono,False,18,no,white,no,no,768,790,1360,1,1,517933,3.8.6,a47ee561-4ea2-80d4-f47b-548d9201c9ec,osweb,0,number,osweb,,4,2,3,1,,osweb,2.1.0,https://jatos.mindprobe.eu,1,864,1368,1,1,1,0,0,0,1,0,b,yellow,enter,enter,4,b,circle,1615,39062,12896,1615,2,osweb,0,0,0,0,864,1368,24,912,24,195,0,1368,0,0,1716113703431,cross,triangle,circle,star,1024,2,48000,-16,experiment,,0,even,Win32,52,319158,304634,320779,108288,321296,51643,90708,319158,319156,319156,321296,Wisconsin Card Sorting Test,15,200257,23,1024
1,0,63,63,8653,8653,#3d3846,Mozilla,Netscape,"5.0 (Windows NT 10.0; Win64; x64) AppleWebKit/537.36 (KHTML, like Gecko) Chrome/124.0.0.0 Safari/537.36 Edg/124.0.0.0",osweb,osweb,0,green,blue,red,yellow,osweb,0,0,0,b,0,23,23,0,0,23,0,0,23,0,0,0,0,0,0,23,23,23,23,23,0,0,19-05-24,19-05-24,12:14:20,Sun May 19 2024 12:14:20 GMT+0200 (Mitteleuropäische Sommerzeit),,,The main experiment item,2,False,0,0,C:\Users\maalt\OneDrive - Universität Wien\Dokumente\Uni\Psychologie\8. Semester\Bachelorarbeit\Experimente\Winsconsin\osweb-version,0,0,0,False,mono,False,18,no,white,no,no,768,790,1360,1,1,517933,3.8.6,a47ee561-4ea2-80d4-f47b-548d9201c9ec,osweb,0,number,osweb,,4,2,3,1,,osweb,2.1.0,https://jatos.mindprobe.eu,1,864,1368,0,1,1,1,0,0,1,0,d,red,enter,enter,2,d,star,7415,39062,12896,7415,2,osweb,0,0,0,0,864,1368,24,912,24,195,0,1368,0,0,1716113703431,cross,circle,triangle,star,1024,2,48000,-16,experiment,,0,even,Win32,52,321322,304634,328752,108288,329268,51643,90708,321322,321314,321314,329267,Wisconsin Card Sorting Test,15,207672,24,1024
1,0,60,60,8385,8385,#3d3846,Mozilla,Netscape,"5.0 (Windows NT 10.0; Win64; x64) AppleWebKit/537.36 (KHTML, like Gecko) Chrome/124.0.0.0 Safari/537.36 Edg/124.0.0.0",osweb,osweb,0,green,blue,red,yellow,osweb,0,0,0,d,0,24,24,0,0,24,0,0,24,0,0,0,0,0,0,24,24,24,24,24,0,0,19-05-24,19-05-24,12:14:20,Sun May 19 2024 12:14:20 GMT+0200 (Mitteleuropäische Sommerzeit),,,The main experiment item,2,False,0,0,C:\Users\maalt\OneDrive - Universität Wien\Dokumente\Uni\Psychologie\8. Semester\Bachelorarbeit\Experimente\Winsconsin\osweb-version,0,0,0,False,mono,False,18,no,white,no,no,768,790,1360,1,1,517933,3.8.6,a47ee561-4ea2-80d4-f47b-548d9201c9ec,osweb,0,number,osweb,,1,2,4,3,,osweb,2.1.0,https://jatos.mindprobe.eu,1,864,1368,1,1,0,1,0,0,1,0,b,blue,enter,enter,3,b,triangle,1960,39062,12896,1960,2,osweb,0,0,0,0,864,1368,24,912,24,195,0,1368,0,0,1716113703431,triangle,star,circle,cross,1024,2,48000,-16,experiment,,0,even,Win32,52,329303,304634,331269,108288,331785,51643,90708,329303,329285,329295,331784,Wisconsin Card Sorting Test,15,209632,25,1024
1,0,62,62,8240,8240,#3d3846,Mozilla,Netscape,"5.0 (Windows NT 10.0; Win64; x64) AppleWebKit/537.36 (KHTML, like Gecko) Chrome/124.0.0.0 Safari/537.36 Edg/124.0.0.0",osweb,osweb,0,blue,green,red,yellow,osweb,1,1,1,d,0,25,25,0,0,25,0,0,25,0,0,0,0,0,0,25,25,25,25,25,0,0,19-05-24,19-05-24,12:14:20,Sun May 19 2024 12:14:20 GMT+0200 (Mitteleuropäische Sommerzeit),,,The main experiment item,2,False,0,0,C:\Users\maalt\OneDrive - Universität Wien\Dokumente\Uni\Psychologie\8. Semester\Bachelorarbeit\Experimente\Winsconsin\osweb-version,0,0,0,False,mono,False,18,no,white,no,no,768,790,1360,1,1,517933,3.8.6,a47ee561-4ea2-80d4-f47b-548d9201c9ec,osweb,0,number,osweb,,4,3,1,2,,osweb,2.1.0,https://jatos.mindprobe.eu,1,864,1368,0,1,1,1,0,0,1,0,d,red,enter,enter,2,d,circle,4616,39062,12896,4616,2,osweb,0,0,0,0,864,1368,24,912,24,195,0,1368,0,0,1716113703431,triangle,circle,star,cross,1024,2,48000,-16,experiment,,0,even,Win32,52,331797,336423,331269,108288,336939,51643,90708,331797,331793,331793,336939,Wisconsin Card Sorting Test,16,214248,26,1024
1,0,63,63,8036,8036,#3d3846,Mozilla,Netscape,"5.0 (Windows NT 10.0; Win64; x64) AppleWebKit/537.36 (KHTML, like Gecko) Chrome/124.0.0.0 Safari/537.36 Edg/124.0.0.0",osweb,osweb,0,yellow,blue,red,green,osweb,1,2,1,d,0,26,26,0,0,26,0,0,26,0,0,0,0,0,0,26,26,26,26,26,0,0,19-05-24,19-05-24,12:14:20,Sun May 19 2024 12:14:20 GMT+0200 (Mitteleuropäische Sommerzeit),,,The main experiment item,2,False,0,0,C:\Users\maalt\OneDrive - Universität Wien\Dokumente\Uni\Psychologie\8. Semester\Bachelorarbeit\Experimente\Winsconsin\osweb-version,0,0,0,False,mono,False,18,no,white,no,no,768,790,1360,1,1,517933,3.8.6,a47ee561-4ea2-80d4-f47b-548d9201c9ec,osweb,0,number,osweb,,2,4,3,1,,osweb,2.1.0,https://jatos.mindprobe.eu,1,864,1368,1,0,1,1,0,0,1,0,d,red,enter,enter,1,d,circle,2721,39062,12896,2721,2,osweb,0,0,0,0,864,1368,24,912,24,195,0,1368,0,0,1716113703431,circle,cross,star,triangle,1024,2,48000,-16,experiment,,0,even,Win32,52,336964,339691,331269,108288,340208,51643,90708,336964,336957,336957,340208,Wisconsin Card Sorting Test,17,216969,27,1024
1,0,64,64,7904,7904,#3d3846,Mozilla,Netscape,"5.0 (Windows NT 10.0; Win64; x64) AppleWebKit/537.36 (KHTML, like Gecko) Chrome/124.0.0.0 Safari/537.36 Edg/124.0.0.0",osweb,osweb,0,yellow,red,blue,green,osweb,1,3,1,b,0,27,27,0,0,27,0,0,27,0,0,0,0,0,0,27,27,27,27,27,0,0,19-05-24,19-05-24,12:14:20,Sun May 19 2024 12:14:20 GMT+0200 (Mitteleuropäische Sommerzeit),,,The main experiment item,2,False,0,0,C:\Users\maalt\OneDrive - Universität Wien\Dokumente\Uni\Psychologie\8. Semester\Bachelorarbeit\Experimente\Winsconsin\osweb-version,0,0,0,False,mono,False,18,no,white,no,no,768,790,1360,1,1,517933,3.8.6,a47ee561-4ea2-80d4-f47b-548d9201c9ec,osweb,0,number,osweb,,1,4,2,3,,osweb,2.1.0,https://jatos.mindprobe.eu,1,864,1368,1,1,0,1,0,0,1,0,b,yellow,enter,enter,4,b,circle,4333,39062,12896,4333,2,osweb,0,0,0,0,864,1368,24,912,24,195,0,1368,0,0,1716113703431,cross,triangle,star,circle,1024,2,48000,-16,experiment,,0,even,Win32,52,340230,344578,331269,108288,345095,51643,90708,340230,340226,340226,345095,Wisconsin Card Sorting Test,18,221302,28,1024
1,0,66,66,7763,7763,#3d3846,Mozilla,Netscape,"5.0 (Windows NT 10.0; Win64; x64) AppleWebKit/537.36 (KHTML, like Gecko) Chrome/124.0.0.0 Safari/537.36 Edg/124.0.0.0",osweb,osweb,0,green,blue,yellow,red,osweb,1,4,1,b,0,28,28,0,0,28,0,0,28,0,0,0,0,0,0,28,28,28,28,28,0,0,19-05-24,19-05-24,12:14:20,Sun May 19 2024 12:14:20 GMT+0200 (Mitteleuropäische Sommerzeit),,,The main experiment item,2,False,0,0,C:\Users\maalt\OneDrive - Universität Wien\Dokumente\Uni\Psychologie\8. Semester\Bachelorarbeit\Experimente\Winsconsin\osweb-version,0,0,0,False,mono,False,18,no,white,no,no,768,790,1360,1,1,517933,3.8.6,a47ee561-4ea2-80d4-f47b-548d9201c9ec,osweb,0,number,osweb,,4,1,3,2,,osweb,2.1.0,https://jatos.mindprobe.eu,1,864,1368,0,1,1,1,0,0,1,0,b,yellow,enter,enter,1,b,cross,3816,39062,12896,3816,2,osweb,0,0,0,0,864,1368,24,912,24,195,0,1368,0,0,1716113703431,triangle,circle,star,cross,1024,2,48000,-16,experiment,,0,even,Win32,52,345127,348948,331269,108288,349465,51643,90708,345127,345116,345117,349464,Wisconsin Card Sorting Test,19,225118,29,1024
1,0,67,67,7599,7599,#3d3846,Mozilla,Netscape,"5.0 (Windows NT 10.0; Win64; x64) AppleWebKit/537.36 (KHTML, like Gecko) Chrome/124.0.0.0 Safari/537.36 Edg/124.0.0.0",osweb,osweb,0,green,yellow,blue,red,osweb,1,0,1,b,0,29,29,0,0,29,0,0,29,0,0,0,0,0,0,29,29,29,29,29,0,0,19-05-24,19-05-24,12:14:20,Sun May 19 2024 12:14:20 GMT+0200 (Mitteleuropäische Sommerzeit),,,The main experiment item,2,False,0,0,C:\Users\maalt\OneDrive - Universität Wien\Dokumente\Uni\Psychologie\8. Semester\Bachelorarbeit\Experimente\Winsconsin\osweb-version,0,0,0,False,mono,False,18,no,white,no,no,768,790,1360,1,1,517933,3.8.6,a47ee561-4ea2-80d4-f47b-548d9201c9ec,osweb,0,shape,osweb,,2,3,1,4,,osweb,2.1.0,https://jatos.mindprobe.eu,1,864,1368,1,1,0,1,0,0,1,0,b,green,enter,enter,3,b,cross,2866,39062,12896,2866,2,osweb,0,0,0,0,864,1368,24,912,24,195,0,1368,0,0,1716113703431,triangle,star,circle,cross,1024,2,48000,-16,experiment,,0,even,Win32,52,349489,352367,331269,108288,352884,51643,90708,349489,349482,349483,352883,Wisconsin Card Sorting Test,20,227984,30,1024
