"acc","accuracy","average_response_time","avg_rt","background","canvas_backend","clock_backend","color1","color2","color3","color4","color_backend","correct","correct_keyboard_response","correct_response","count_block_loop","count_card_display","count_correct_feedback","count_experiment","count_goodbye","count_incorrect_feedback","count_init_params","count_instructions","count_keyboard_response","count_logger","count_set_correct_rule","count_set_response_card","count_trial_sequence","count_update_rule","datetime","description","disable_garbage_collection","experiment_file","experiment_path","font_bold","font_family","font_italic","font_size","font_underline","foreground","form_clicks","form_response","fullscreen","height","keyboard_backend","live_row","live_row_block_loop","logfile","matching_rule","mouse_backend","n_correct_reset","n_current_streak","number1","number2","number3","number4","opensesame_codename","opensesame_version","overlap1","overlap2","overlap3","overlap4","repeat_cycle","response","response_color","response_keyboard_response","response_number","response_shape","response_time","response_time_keyboard_response","round_decimals","sampler_backend","shape1","shape2","shape3","shape4","sound_buf_size","sound_channels","sound_freq","sound_sample_size","start","subject_nr","subject_parity","time_block_loop","time_card_display","time_correct_feedback","time_experiment","time_goodbye","time_incorrect_feedback","time_init_params","time_instructions","time_keyboard_response","time_logger","time_set_correct_rule","time_set_response_card","time_trial_sequence","time_update_rule","title","total_correct","total_response_time","total_responses","width"
"0","0","7412","7412","#3d3846","psycho","psycho","blue","green","yellow","red","psycho","0","0","d","0","0","0","0","0","0","0","0","0","0","0","0","0","0","Tue May  7 12:11:00 2024","The main experiment item","True","wsct-complete-opensesame4.osexp","C:\Users\maalt\OneDrive - Universität Wien\Dokumente\Uni\Psychologie\8. Semester\Bachelorarbeit\Experimente\Winsconsin\desktop-version","False","mono","False","18","no","white","no","Ok","yes","768","psycho","0","0","C:/Users/maalt/OneDrive - Universität Wien/Dokumente/Uni/Psychologie/8. Semester/Bachelorarbeit/Experimente/Winsconsin/Random_log_files/subject-1.csv","color","psycho","5","0","3","4","2","1","Melodramatic Milgram","4.0.13","0","1","1","1","0","a","red","a","2","triangle","7412.249800003337","7412.249800003337","2","psycho","star","triangle","circle","cross","1024","2","48000","-16","experiment","1","odd","30884.41000000239","31368.659800002206","NA","16270.902500000375","NA","38794.25210000045","30884.265400000004","16274.750700002187","31369.435299999168","39294.59549999956","31354.987900002016","31354.914100000315","31352.96820000076","39294.53400000057","Wisconsin Card Sorting Test","0","7412.249800003337","1","1024"
"0","0","4609","4609","#3d3846","psycho","psycho","yellow","blue","green","red","psycho","0","0","d","0","1","1","0","0","1","0","0","1","1","1","1","1","1","Tue May  7 12:11:00 2024","The main experiment item","True","wsct-complete-opensesame4.osexp","C:\Users\maalt\OneDrive - Universität Wien\Dokumente\Uni\Psychologie\8. Semester\Bachelorarbeit\Experimente\Winsconsin\desktop-version","False","mono","False","18","no","white","no","Ok","yes","768","psycho","1","1","C:/Users/maalt/OneDrive - Universität Wien/Dokumente/Uni/Psychologie/8. Semester/Bachelorarbeit/Experimente/Winsconsin/Random_log_files/subject-1.csv","color","psycho","5","0","1","2","4","3","Melodramatic Milgram","4.0.13","1","1","0","1","0","a","red","a","2","star","1806.7828999992344","1806.7828999992344","2","psycho","star","circle","triangle","cross","1024","2","48000","-16","experiment","1","odd","30884.41000000239","39564.62710000051","NA","16270.902500000375","NA","41379.36350000018","30884.265400000004","16274.750700002187","39564.89789999978","41879.61429999996","39551.20040000111","39551.16260000068","39551.01579999973","41879.56359999953","Wisconsin Card Sorting Test","0","9219.032700002572","2","1024"
"0","0","4044","4044","#3d3846","psycho","psycho","blue","green","red","yellow","psycho","0","0","a","0","2","2","0","0","2","0","0","2","2","2","2","2","2","Tue May  7 12:11:00 2024","The main experiment item","True","wsct-complete-opensesame4.osexp","C:\Users\maalt\OneDrive - Universität Wien\Dokumente\Uni\Psychologie\8. Semester\Bachelorarbeit\Experimente\Winsconsin\desktop-version","False","mono","False","18","no","white","no","Ok","yes","768","psycho","2","2","C:/Users/maalt/OneDrive - Universität Wien/Dokumente/Uni/Psychologie/8. Semester/Bachelorarbeit/Experimente/Winsconsin/Random_log_files/subject-1.csv","color","psycho","5","0","3","2","4","1","Melodramatic Milgram","4.0.13","1","1","1","0","0","c","blue","c","2","cross","2914.237900000444","2914.237900000444","2","psycho","star","circle","cross","triangle","1024","2","48000","-16","experiment","1","odd","30884.41000000239","42127.04379999923","NA","16270.902500000375","NA","45049.28959999961","30884.265400000004","16274.750700002187","42127.3265000018","45549.72310000085","42117.69660000209","42117.65650000234","42117.43969999952","45549.67469999974","Wisconsin Card Sorting Test","0","12133.270600003016","3","1024"
"0","0","3943","3943","#3d3846","psycho","psycho","red","yellow","green","blue","psycho","0","0","d","0","3","3","0","0","3","0","0","3","3","3","3","3","3","Tue May  7 12:11:00 2024","The main experiment item","True","wsct-complete-opensesame4.osexp","C:\Users\maalt\OneDrive - Universität Wien\Dokumente\Uni\Psychologie\8. Semester\Bachelorarbeit\Experimente\Winsconsin\desktop-version","False","mono","False","18","no","white","no","Ok","yes","768","psycho","3","3","C:/Users/maalt/OneDrive - Universität Wien/Dokumente/Uni/Psychologie/8. Semester/Bachelorarbeit/Experimente/Winsconsin/Random_log_files/subject-1.csv","color","psycho","5","0","4","3","2","1","Melodramatic Milgram","4.0.13","1","1","0","1","0","b","blue","b","4","star","3638.8643000027514","3638.8643000027514","2","psycho","triangle","star","cross","circle","1024","2","48000","-16","experiment","1","odd","30884.41000000239","45812.423400002444","NA","16270.902500000375","NA","49459.1356000019","30884.265400000004","16274.750700002187","45812.68389999968","49959.4259000005","45800.698700000794","45800.66490000172","45800.52930000238","49959.37520000007","Wisconsin Card Sorting Test","0","15772.134900005767","4","1024"
"0","0","4105","4105","#3d3846","psycho","psycho","red","green","yellow","blue","psycho","0","0","d","0","4","4","0","0","4","0","0","4","4","4","4","4","4","Tue May  7 12:11:00 2024","The main experiment item","True","wsct-complete-opensesame4.osexp","C:\Users\maalt\OneDrive - Universität Wien\Dokumente\Uni\Psychologie\8. Semester\Bachelorarbeit\Experimente\Winsconsin\desktop-version","False","mono","False","18","no","white","no","Ok","yes","768","psycho","4","4","C:/Users/maalt/OneDrive - Universität Wien/Dokumente/Uni/Psychologie/8. Semester/Bachelorarbeit/Experimente/Winsconsin/Random_log_files/subject-1.csv","color","psycho","5","0","4","3","2","1","Melodramatic Milgram","4.0.13","0","1","1","1","0","c","blue","c","2","triangle","4757.184900001448","4757.184900001448","2","psycho","star","triangle","cross","circle","1024","2","48000","-16","experiment","1","odd","30884.41000000239","50243.962000000465","NA","16270.902500000375","NA","55008.614000002126","30884.265400000004","16274.750700002187","50244.242299999314","55508.89610000013","50229.59970000011","50229.51710000052","50229.18610000124","55508.84750000114","Wisconsin Card Sorting Test","0","20529.319800007215","5","1024"
"16","16","4339","4339","#3d3846","psycho","psycho","yellow","blue","red","green","psycho","1","1","a","0","5","5","0","0","5","0","0","5","5","5","5","5","5","Tue May  7 12:11:00 2024","The main experiment item","True","wsct-complete-opensesame4.osexp","C:\Users\maalt\OneDrive - Universität Wien\Dokumente\Uni\Psychologie\8. Semester\Bachelorarbeit\Experimente\Winsconsin\desktop-version","False","mono","False","18","no","white","no","Ok","yes","768","psycho","5","5","C:/Users/maalt/OneDrive - Universität Wien/Dokumente/Uni/Psychologie/8. Semester/Bachelorarbeit/Experimente/Winsconsin/Random_log_files/subject-1.csv","color","psycho","5","1","3","4","1","2","Melodramatic Milgram","4.0.13","1","1","0","1","0","a","yellow","a","2","triangle","5509.130399997957","5509.130399997957","2","psycho","star","triangle","cross","circle","1024","2","48000","-16","experiment","1","odd","30884.41000000239","55732.0206000004","61248.95110000216","16270.902500000375","NA","55008.614000002126","30884.265400000004","16274.750700002187","55732.30750000221","61749.31320000178","55721.75620000053","55721.72630000205","55721.584700000676","61749.2514000005","Wisconsin Card Sorting Test","1","26038.450200005173","6","1024"
"28","28","4106","4106","#3d3846","psycho","psycho","green","blue","yellow","red","psycho","1","1","d","0","6","6","0","0","6","0","0","6","6","6","6","6","6","Tue May  7 12:11:00 2024","The main experiment item","True","wsct-complete-opensesame4.osexp","C:\Users\maalt\OneDrive - Universität Wien\Dokumente\Uni\Psychologie\8. Semester\Bachelorarbeit\Experimente\Winsconsin\desktop-version","False","mono","False","18","no","white","no","Ok","yes","768","psycho","6","6","C:/Users/maalt/OneDrive - Universität Wien/Dokumente/Uni/Psychologie/8. Semester/Bachelorarbeit/Experimente/Winsconsin/Random_log_files/subject-1.csv","color","psycho","5","2","2","1","3","4","Melodramatic Milgram","4.0.13","1","1","0","1","0","d","red","d","2","triangle","2704.805599998508","2704.805599998508","2","psycho","star","triangle","cross","circle","1024","2","48000","-16","experiment","1","odd","30884.41000000239","61986.75550000189","64698.73970000117","16270.902500000375","NA","55008.614000002126","30884.265400000004","16274.750700002187","61987.029100000655","65199.033200002305","61976.293300002","61976.20789999928","61975.80620000008","65198.95710000128","Wisconsin Card Sorting Test","2","28743.25580000368","7","1024"
"37","37","3770","3770","#3d3846","psycho","psycho","green","blue","red","yellow","psycho","1","1","a","0","7","7","0","0","7","0","0","7","7","7","7","7","7","Tue May  7 12:11:00 2024","The main experiment item","True","wsct-complete-opensesame4.osexp","C:\Users\maalt\OneDrive - Universität Wien\Dokumente\Uni\Psychologie\8. Semester\Bachelorarbeit\Experimente\Winsconsin\desktop-version","False","mono","False","18","no","white","no","Ok","yes","768","psycho","7","7","C:/Users/maalt/OneDrive - Universität Wien/Dokumente/Uni/Psychologie/8. Semester/Bachelorarbeit/Experimente/Winsconsin/Random_log_files/subject-1.csv","color","psycho","5","3","4","3","1","2","Melodramatic Milgram","4.0.13","1","1","1","0","0","a","green","a","1","star","1422.596299998986","1422.596299998986","2","psycho","cross","star","circle","triangle","1024","2","48000","-16","experiment","1","odd","30884.41000000239","65418.70910000216","66849.92799999964","16270.902500000375","NA","55008.614000002126","30884.265400000004","16274.750700002187","65418.9621000005","67350.21319999942","65406.274299999495","65406.24310000203","65406.119999999646","67350.15670000212","Wisconsin Card Sorting Test","3","30165.852100002667","8","1024"
"33","33","3475","3475","#3d3846","psycho","psycho","green","blue","yellow","red","psycho","0","0","c","0","8","8","0","0","8","0","0","8","8","8","8","8","8","Tue May  7 12:11:00 2024","The main experiment item","True","wsct-complete-opensesame4.osexp","C:\Users\maalt\OneDrive - Universität Wien\Dokumente\Uni\Psychologie\8. Semester\Bachelorarbeit\Experimente\Winsconsin\desktop-version","False","mono","False","18","no","white","no","Ok","yes","768","psycho","8","8","C:/Users/maalt/OneDrive - Universität Wien/Dokumente/Uni/Psychologie/8. Semester/Bachelorarbeit/Experimente/Winsconsin/Random_log_files/subject-1.csv","color","psycho","5","0","4","2","1","3","Melodramatic Milgram","4.0.13","0","1","1","1","0","a","yellow","a","2","circle","1111.0109000001103","1111.0109000001103","2","psycho","star","triangle","cross","circle","1024","2","48000","-16","experiment","1","odd","30884.41000000239","67600.23329999967","66849.92799999964","16270.902500000375","NA","68717.88650000235","30884.265400000004","16274.750700002187","67600.45159999936","69218.24940000079","67588.65750000041","67588.60850000201","67588.44279999903","69218.19740000137","Wisconsin Card Sorting Test","3","31276.863000002777","9","1024"
"40","40","3310","3310","#3d3846","psycho","psycho","red","yellow","green","blue","psycho","1","1","c","0","9","9","0","0","9","0","0","9","9","9","9","9","9","Tue May  7 12:11:00 2024","The main experiment item","True","wsct-complete-opensesame4.osexp","C:\Users\maalt\OneDrive - Universität Wien\Dokumente\Uni\Psychologie\8. Semester\Bachelorarbeit\Experimente\Winsconsin\desktop-version","False","mono","False","18","no","white","no","Ok","yes","768","psycho","9","9","C:/Users/maalt/OneDrive - Universität Wien/Dokumente/Uni/Psychologie/8. Semester/Bachelorarbeit/Experimente/Winsconsin/Random_log_files/subject-1.csv","color","psycho","5","1","1","4","2","3","Melodramatic Milgram","4.0.13","0","1","1","1","0","c","green","c","4","star","1824.0373000007821","1824.0373000007821","2","psycho","circle","triangle","cross","star","1024","2","48000","-16","experiment","1","odd","30884.41000000239","69457.13869999963","71289.30319999927","16270.902500000375","NA","68717.88650000235","30884.265400000004","16274.750700002187","69457.44120000018","71789.58390000116","69442.82220000241","69442.78580000173","69442.65240000095","71789.54010000234","Wisconsin Card Sorting Test","4","33100.90030000356","10","1024"
"45","45","3077","3077","#3d3846","psycho","psycho","green","red","yellow","blue","psycho","1","1","a","0","10","10","0","0","10","0","0","10","10","10","10","10","10","Tue May  7 12:11:00 2024","The main experiment item","True","wsct-complete-opensesame4.osexp","C:\Users\maalt\OneDrive - Universität Wien\Dokumente\Uni\Psychologie\8. Semester\Bachelorarbeit\Experimente\Winsconsin\desktop-version","False","mono","False","18","no","white","no","Ok","yes","768","psycho","10","10","C:/Users/maalt/OneDrive - Universität Wien/Dokumente/Uni/Psychologie/8. Semester/Bachelorarbeit/Experimente/Winsconsin/Random_log_files/subject-1.csv","color","psycho","5","2","1","4","2","3","Melodramatic Milgram","4.0.13","1","0","1","1","0","a","green","a","3","star","748.4092999984568","748.4092999984568","2","psycho","triangle","cross","star","circle","1024","2","48000","-16","experiment","1","odd","30884.41000000239","72032.8155999996","72790.79490000004","16270.902500000375","NA","68717.88650000235","30884.265400000004","16274.750700002187","72033.06100000191","73291.72470000049","72021.68159999928","72021.6059000013","72021.43280000018","73291.67489999963","Wisconsin Card Sorting Test","5","33849.309600002016","11","1024"
"50","50","3050","3050","#3d3846","psycho","psycho","red","blue","green","yellow","psycho","1","1","b","0","11","11","0","0","11","0","0","11","11","11","11","11","11","Tue May  7 12:11:00 2024","The main experiment item","True","wsct-complete-opensesame4.osexp","C:\Users\maalt\OneDrive - Universität Wien\Dokumente\Uni\Psychologie\8. Semester\Bachelorarbeit\Experimente\Winsconsin\desktop-version","False","mono","False","18","no","white","no","Ok","yes","768","psycho","11","11","C:/Users/maalt/OneDrive - Universität Wien/Dokumente/Uni/Psychologie/8. Semester/Bachelorarbeit/Experimente/Winsconsin/Random_log_files/subject-1.csv","color","psycho","5","3","4","3","1","2","Melodramatic Milgram","4.0.13","1","1","0","1","0","b","blue","b","2","star","2756.3140999991447","2756.3140999991447","2","psycho","star","circle","triangle","cross","1024","2","48000","-16","experiment","1","odd","30884.41000000239","73514.72189999913","76278.45370000068","16270.902500000375","NA","68717.88650000235","30884.265400000004","16274.750700002187","73515.05840000027","76778.73639999962","73502.62139999904","73502.53240000166","73502.26789999942","76778.68800000215","Wisconsin Card Sorting Test","6","36605.62370000116","12","1024"
"53","53","2978","2978","#3d3846","psycho","psycho","green","red","yellow","blue","psycho","1","1","d","0","12","12","0","0","12","0","0","12","12","12","12","12","12","Tue May  7 12:11:00 2024","The main experiment item","True","wsct-complete-opensesame4.osexp","C:\Users\maalt\OneDrive - Universität Wien\Dokumente\Uni\Psychologie\8. Semester\Bachelorarbeit\Experimente\Winsconsin\desktop-version","False","mono","False","18","no","white","no","Ok","yes","768","psycho","12","12","C:/Users/maalt/OneDrive - Universität Wien/Dokumente/Uni/Psychologie/8. Semester/Bachelorarbeit/Experimente/Winsconsin/Random_log_files/subject-1.csv","color","psycho","5","4","4","3","1","2","Melodramatic Milgram","4.0.13","1","1","0","1","0","d","blue","d","4","cross","2115.8719999984896","2115.8719999984896","2","psycho","triangle","cross","circle","star","1024","2","48000","-16","experiment","1","odd","30884.41000000239","77024.93569999933","79157.53469999981","16270.902500000375","NA","68717.88650000235","30884.265400000004","16274.750700002187","77025.60070000254","79658.15999999904","77007.3639000002","77007.32910000079","77007.19980000213","79658.08180000022","Wisconsin Card Sorting Test","7","38721.49569999965","13","1024"
"57","57","2896","2896","#3d3846","psycho","psycho","yellow","green","blue","red","psycho","1","1","c","0","13","13","0","0","13","0","0","13","13","13","13","13","13","Tue May  7 12:11:00 2024","The main experiment item","True","wsct-complete-opensesame4.osexp","C:\Users\maalt\OneDrive - Universität Wien\Dokumente\Uni\Psychologie\8. Semester\Bachelorarbeit\Experimente\Winsconsin\desktop-version","False","mono","False","18","no","white","no","Ok","yes","768","psycho","13","13","C:/Users/maalt/OneDrive - Universität Wien/Dokumente/Uni/Psychologie/8. Semester/Bachelorarbeit/Experimente/Winsconsin/Random_log_files/subject-1.csv","shape","psycho","5","5","3","1","4","2","Melodramatic Milgram","4.0.13","1","1","1","0","0","c","blue","c","1","circle","1823.7179999996442","1823.7179999996442","2","psycho","circle","triangle","star","cross","1024","2","48000","-16","experiment","1","odd","30884.41000000239","80046.90269999992","81878.49980000101","16270.902500000375","NA","68717.88650000235","30884.265400000004","16274.750700002187","80047.67790000187","82378.92619999911","80025.6584000017","80025.57860000161","80025.40180000142","82378.86480000088","Wisconsin Card Sorting Test","8","40545.213699999294","14","1024"
"53","53","2880","2880","#3d3846","psycho","psycho","red","green","yellow","blue","psycho","0","0","b","0","14","14","0","0","14","0","0","14","14","14","14","14","14","Tue May  7 12:11:00 2024","The main experiment item","True","wsct-complete-opensesame4.osexp","C:\Users\maalt\OneDrive - Universität Wien\Dokumente\Uni\Psychologie\8. Semester\Bachelorarbeit\Experimente\Winsconsin\desktop-version","False","mono","False","18","no","white","no","Ok","yes","768","psycho","14","14","C:/Users/maalt/OneDrive - Universität Wien/Dokumente/Uni/Psychologie/8. Semester/Bachelorarbeit/Experimente/Winsconsin/Random_log_files/subject-1.csv","shape","psycho","5","0","2","3","4","1","Melodramatic Milgram","4.0.13","1","1","1","0","0","a","red","a","4","star","2667.14470000079","2667.14470000079","2","psycho","circle","star","triangle","cross","1024","2","48000","-16","experiment","1","odd","30884.41000000239","82584.1361999992","81878.49980000101","16270.902500000375","NA","85258.06749999902","30884.265400000004","16274.750700002187","82584.3687000015","85758.9364000014","82576.1205000017","82576.09130000128","82575.9747000011","85758.88580000174","Wisconsin Card Sorting Test","8","43212.358400000085","15","1024"
"56","56","2861","2861","#3d3846","psycho","psycho","yellow","green","red","blue","psycho","1","1","b","0","15","15","0","0","15","0","0","15","15","15","15","15","15","Tue May  7 12:11:00 2024","The main experiment item","True","wsct-complete-opensesame4.osexp","C:\Users\maalt\OneDrive - Universität Wien\Dokumente\Uni\Psychologie\8. Semester\Bachelorarbeit\Experimente\Winsconsin\desktop-version","False","mono","False","18","no","white","no","Ok","yes","768","psycho","15","15","C:/Users/maalt/OneDrive - Universität Wien/Dokumente/Uni/Psychologie/8. Semester/Bachelorarbeit/Experimente/Winsconsin/Random_log_files/subject-1.csv","shape","psycho","5","1","2","4","1","3","Melodramatic Milgram","4.0.13","1","1","0","1","0","b","yellow","b","3","star","2576.7817000014475","2576.7817000014475","2","psycho","triangle","star","circle","cross","1024","2","48000","-16","experiment","1","odd","30884.41000000239","85964.2387999993","88547.9634000003","16270.902500000375","NA","85258.06749999902","30884.265400000004","16274.750700002187","85964.49030000076","89048.39410000204","85954.8849999992","85954.63279999967","85954.44560000033","89048.34920000212","Wisconsin Card Sorting Test","9","45789.14010000153","16","1024"
"52","52","2788","2788","#3d3846","psycho","psycho","green","red","blue","yellow","psycho","0","0","c","0","16","16","0","0","16","0","0","16","16","16","16","16","16","Tue May  7 12:11:00 2024","The main experiment item","True","wsct-complete-opensesame4.osexp","C:\Users\maalt\OneDrive - Universität Wien\Dokumente\Uni\Psychologie\8. Semester\Bachelorarbeit\Experimente\Winsconsin\desktop-version","False","mono","False","18","no","white","no","Ok","yes","768","psycho","16","16","C:/Users/maalt/OneDrive - Universität Wien/Dokumente/Uni/Psychologie/8. Semester/Bachelorarbeit/Experimente/Winsconsin/Random_log_files/subject-1.csv","shape","psycho","5","0","1","4","2","3","Melodramatic Milgram","4.0.13","1","0","1","1","0","d","yellow","d","1","star","1621.9579000025988","1621.9579000025988","2","psycho","triangle","circle","star","cross","1024","2","48000","-16","experiment","1","odd","30884.41000000239","89239.20980000184","88547.9634000003","16270.902500000375","NA","90868.07930000214","30884.265400000004","16274.750700002187","89239.429199999","91368.78559999968","89229.51540000213","89229.48120000001","89229.27820000041","91368.73729999934","Wisconsin Card Sorting Test","9","47411.09800000413","17","1024"
"55","55","2762","2762","#3d3846","psycho","psycho","green","red","blue","yellow","psycho","1","1","a","0","17","17","0","0","17","0","0","17","17","17","17","17","17","Tue May  7 12:11:00 2024","The main experiment item","True","wsct-complete-opensesame4.osexp","C:\Users\maalt\OneDrive - Universität Wien\Dokumente\Uni\Psychologie\8. Semester\Bachelorarbeit\Experimente\Winsconsin\desktop-version","False","mono","False","18","no","white","no","Ok","yes","768","psycho","17","17","C:/Users/maalt/OneDrive - Universität Wien/Dokumente/Uni/Psychologie/8. Semester/Bachelorarbeit/Experimente/Winsconsin/Random_log_files/subject-1.csv","shape","psycho","5","1","4","1","2","3","Melodramatic Milgram","4.0.13","1","1","0","1","0","a","yellow","a","1","cross","2320.2519999977085","2320.2519999977085","2","psycho","cross","triangle","circle","star","1024","2","48000","-16","experiment","1","odd","30884.41000000239","91580.81070000117","93910.99170000234","16270.902500000375","NA","90868.07930000214","30884.265400000004","16274.750700002187","91581.05500000238","94411.86329999982","91570.6663000019","91570.62750000114","91570.46840000112","94411.77470000184","Wisconsin Card Sorting Test","10","49731.35000000184","18","1024"
"57","57","2729","2729","#3d3846","psycho","psycho","green","yellow","blue","red","psycho","1","1","b","0","18","18","0","0","18","0","0","18","18","18","18","18","18","Tue May  7 12:11:00 2024","The main experiment item","True","wsct-complete-opensesame4.osexp","C:\Users\maalt\OneDrive - Universität Wien\Dokumente\Uni\Psychologie\8. Semester\Bachelorarbeit\Experimente\Winsconsin\desktop-version","False","mono","False","18","no","white","no","Ok","yes","768","psycho","18","18","C:/Users/maalt/OneDrive - Universität Wien/Dokumente/Uni/Psychologie/8. Semester/Bachelorarbeit/Experimente/Winsconsin/Random_log_files/subject-1.csv","shape","psycho","5","2","4","1","2","3","Melodramatic Milgram","4.0.13","0","1","1","1","0","b","red","b","2","triangle","2132.4926000015694","2132.4926000015694","2","psycho","cross","triangle","star","circle","1024","2","48000","-16","experiment","1","odd","30884.41000000239","94788.00840000258","96929.61230000219","16270.902500000375","NA","90868.07930000214","30884.265400000004","16274.750700002187","94788.69309999936","97430.1873000004","94771.36819999942","94771.30730000135","94771.11220000006","97430.13300000166","Wisconsin Card Sorting Test","11","51863.84260000341","19","1024"
"60","60","2750","2750","#3d3846","psycho","psycho","green","yellow","blue","red","psycho","1","1","d","0","19","19","0","0","19","0","0","19","19","19","19","19","19","Tue May  7 12:11:00 2024","The main experiment item","True","wsct-complete-opensesame4.osexp","C:\Users\maalt\OneDrive - Universität Wien\Dokumente\Uni\Psychologie\8. Semester\Bachelorarbeit\Experimente\Winsconsin\desktop-version","False","mono","False","18","no","white","no","Ok","yes","768","psycho","19","19","C:/Users/maalt/OneDrive - Universität Wien/Dokumente/Uni/Psychologie/8. Semester/Bachelorarbeit/Experimente/Winsconsin/Random_log_files/subject-1.csv","shape","psycho","5","3","3","2","4","1","Melodramatic Milgram","4.0.13","0","1","1","1","0","d","yellow","d","4","cross","3146.9615000023623","3146.9615000023623","2","psycho","circle","triangle","star","cross","1024","2","48000","-16","experiment","1","odd","30884.41000000239","97703.78130000245","100860.07470000186","16270.902500000375","NA","90868.07930000214","30884.265400000004","16274.750700002187","97704.38959999956","101360.38330000156","97685.87219999972","97685.7987000003","97685.55050000214","101360.31390000062","Wisconsin Card Sorting Test","12","55010.80410000577","20","1024"
"57","57","2681","2681","#3d3846","psycho","psycho","red","green","blue","yellow","psycho","0","0","b","0","20","20","0","0","20","0","0","20","20","20","20","20","20","Tue May  7 12:11:00 2024","The main experiment item","True","wsct-complete-opensesame4.osexp","C:\Users\maalt\OneDrive - Universität Wien\Dokumente\Uni\Psychologie\8. Semester\Bachelorarbeit\Experimente\Winsconsin\desktop-version","False","mono","False","18","no","white","no","Ok","yes","768","psycho","20","20","C:/Users/maalt/OneDrive - Universität Wien/Dokumente/Uni/Psychologie/8. Semester/Bachelorarbeit/Experimente/Winsconsin/Random_log_files/subject-1.csv","shape","psycho","5","0","2","3","4","1","Melodramatic Milgram","4.0.13","1","1","1","0","0","a","blue","a","2","circle","1294.9974999974074","1294.9974999974074","2","psycho","triangle","circle","cross","star","1024","2","48000","-16","experiment","1","odd","30884.41000000239","101556.11499999941","100860.07470000186","16270.902500000375","NA","102858.29790000207","30884.265400000004","16274.750700002187","101556.32610000248","103358.72980000204","101540.33550000167","101540.30190000049","101540.15910000089","103358.67280000093","Wisconsin Card Sorting Test","12","56305.80160000318","21","1024"
"54","54","2561","2561","#3d3846","psycho","psycho","red","green","yellow","blue","psycho","0","0","d","0","21","21","0","0","21","0","0","21","21","21","21","21","21","Tue May  7 12:11:00 2024","The main experiment item","True","wsct-complete-opensesame4.osexp","C:\Users\maalt\OneDrive - Universität Wien\Dokumente\Uni\Psychologie\8. Semester\Bachelorarbeit\Experimente\Winsconsin\desktop-version","False","mono","False","18","no","white","no","Ok","yes","768","psycho","21","21","C:/Users/maalt/OneDrive - Universität Wien/Dokumente/Uni/Psychologie/8. Semester/Bachelorarbeit/Experimente/Winsconsin/Random_log_files/subject-1.csv","shape","psycho","5","0","2","3","4","1","Melodramatic Milgram","4.0.13","1","1","0","1","0","a","green","a","2","triangle","46.34290000103647","46.34290000103647","2","psycho","cross","circle","star","triangle","1024","2","48000","-16","experiment","1","odd","30884.41000000239","103584.8193999991","100860.07470000186","16270.902500000375","NA","103644.40640000248","30884.265400000004","16274.750700002187","103585.1831","104145.1788000013","103569.71080000221","103569.52219999948","103567.58560000162","104145.1197000024","Wisconsin Card Sorting Test","12","56352.144500004215","22","1024"
"52","52","2457","2457","#3d3846","psycho","psycho","red","green","yellow","blue","psycho","0","0","c","0","22","22","0","0","22","0","0","22","22","22","22","22","22","Tue May  7 12:11:00 2024","The main experiment item","True","wsct-complete-opensesame4.osexp","C:\Users\maalt\OneDrive - Universität Wien\Dokumente\Uni\Psychologie\8. Semester\Bachelorarbeit\Experimente\Winsconsin\desktop-version","False","mono","False","18","no","white","no","Ok","yes","768","psycho","22","22","C:/Users/maalt/OneDrive - Universität Wien/Dokumente/Uni/Psychologie/8. Semester/Bachelorarbeit/Experimente/Winsconsin/Random_log_files/subject-1.csv","shape","psycho","5","0","3","4","1","2","Melodramatic Milgram","4.0.13","1","1","1","0","0","a","green","a","3","cross","170.38010000032955","170.38010000032955","2","psycho","triangle","circle","cross","star","1024","2","48000","-16","experiment","1","odd","30884.41000000239","104410.83090000029","100860.07470000186","16270.902500000375","NA","104590.92450000026","30884.265400000004","16274.750700002187","104411.11480000109","105091.21070000037","104400.03419999994","104399.92859999984","104397.57689999897","105091.14390000104","Wisconsin Card Sorting Test","12","56522.524600004544","23","1024"
"54","54","2357","2357","#3d3846","psycho","psycho","yellow","blue","green","red","psycho","1","1","a","0","23","23","0","0","23","0","0","23","23","23","23","23","23","Tue May  7 12:11:00 2024","The main experiment item","True","wsct-complete-opensesame4.osexp","C:\Users\maalt\OneDrive - Universität Wien\Dokumente\Uni\Psychologie\8. Semester\Bachelorarbeit\Experimente\Winsconsin\desktop-version","False","mono","False","18","no","white","no","Ok","yes","768","psycho","23","23","C:/Users/maalt/OneDrive - Universität Wien/Dokumente/Uni/Psychologie/8. Semester/Bachelorarbeit/Experimente/Winsconsin/Random_log_files/subject-1.csv","shape","psycho","5","1","3","1","2","4","Melodramatic Milgram","4.0.13","1","1","0","1","0","a","blue","a","4","star","51.48150000241003","51.48150000241003","2","psycho","star","triangle","circle","cross","1024","2","48000","-16","experiment","1","odd","30884.41000000239","105309.56490000244","105371.0487999997","16270.902500000375","NA","104590.92450000026","30884.265400000004","16274.750700002187","105309.85829999918","105871.4652000017","105297.95550000199","105297.8976000013","105296.43919999944","105871.38570000025","Wisconsin Card Sorting Test","13","56574.006100006955","24","1024"
"52","52","2263","2263","#3d3846","psycho","psycho","blue","green","yellow","red","psycho","0","0","d","0","24","24","0","0","24","0","0","24","24","24","24","24","24","Tue May  7 12:11:00 2024","The main experiment item","True","wsct-complete-opensesame4.osexp","C:\Users\maalt\OneDrive - Universität Wien\Dokumente\Uni\Psychologie\8. Semester\Bachelorarbeit\Experimente\Winsconsin\desktop-version","False","mono","False","18","no","white","no","Ok","yes","768","psycho","24","24","C:/Users/maalt/OneDrive - Universität Wien/Dokumente/Uni/Psychologie/8. Semester/Bachelorarbeit/Experimente/Winsconsin/Random_log_files/subject-1.csv","shape","psycho","5","0","3","4","2","1","Melodramatic Milgram","4.0.13","1","0","1","1","0","a","yellow","a","3","cross","21.152100001927465","21.152100001927465","2","psycho","circle","star","triangle","cross","1024","2","48000","-16","experiment","1","odd","30884.41000000239","106109.87460000251","105371.0487999997","16270.902500000375","NA","106140.2584000025","30884.265400000004","16274.750700002187","106110.12560000017","106640.56030000211","106100.14290000254","106099.98429999905","106095.89219999907","106640.50159999897","Wisconsin Card Sorting Test","13","56595.15820000888","25","1024"
"50","50","2178","2178","#3d3846","psycho","psycho","blue","yellow","green","red","psycho","0","0","c","0","25","25","0","0","25","0","0","25","25","25","25","25","25","Tue May  7 12:11:00 2024","The main experiment item","True","wsct-complete-opensesame4.osexp","C:\Users\maalt\OneDrive - Universität Wien\Dokumente\Uni\Psychologie\8. Semester\Bachelorarbeit\Experimente\Winsconsin\desktop-version","False","mono","False","18","no","white","no","Ok","yes","768","psycho","25","25","C:/Users/maalt/OneDrive - Universität Wien/Dokumente/Uni/Psychologie/8. Semester/Bachelorarbeit/Experimente/Winsconsin/Random_log_files/subject-1.csv","shape","psycho","5","0","2","1","4","3","Melodramatic Milgram","4.0.13","0","1","1","1","0","a","yellow","a","3","cross","51.11729999771342","51.11729999771342","2","psycho","star","triangle","cross","circle","1024","2","48000","-16","experiment","1","odd","30884.41000000239","106869.82400000124","105371.0487999997","16270.902500000375","NA","106930.3003999994","30884.265400000004","16274.750700002187","106870.07690000246","107430.6241000013","106855.86540000077","106855.7776000016","106853.14170000129","107430.56920000163","Wisconsin Card Sorting Test","13","56646.275500006595","26","1024"
"48","48","2100","2100","#3d3846","psycho","psycho","yellow","blue","green","red","psycho","0","0","c","0","26","26","0","0","26","0","0","26","26","26","26","26","26","Tue May  7 12:11:00 2024","The main experiment item","True","wsct-complete-opensesame4.osexp","C:\Users\maalt\OneDrive - Universität Wien\Dokumente\Uni\Psychologie\8. Semester\Bachelorarbeit\Experimente\Winsconsin\desktop-version","False","mono","False","18","no","white","no","Ok","yes","768","psycho","26","26","C:/Users/maalt/OneDrive - Universität Wien/Dokumente/Uni/Psychologie/8. Semester/Bachelorarbeit/Experimente/Winsconsin/Random_log_files/subject-1.csv","shape","psycho","5","0","3","2","4","1","Melodramatic Milgram","4.0.13","1","0","1","1","0","a","red","a","3","cross","55.47659999865573","55.47659999865573","2","psycho","triangle","star","cross","circle","1024","2","48000","-16","experiment","1","odd","30884.41000000239","107675.65340000147","105371.0487999997","16270.902500000375","NA","107741.72589999944","30884.265400000004","16274.750700002187","107675.94530000133","108242.10279999897","107664.62030000184","107664.54820000217","107660.89819999979","108242.0447000004","Wisconsin Card Sorting Test","13","56701.75210000525","27","1024"
"46","46","2027","2027","#3d3846","psycho","psycho","yellow","blue","green","red","psycho","0","0","c","0","27","27","0","0","27","0","0","27","27","27","27","27","27","Tue May  7 12:11:00 2024","The main experiment item","True","wsct-complete-opensesame4.osexp","C:\Users\maalt\OneDrive - Universität Wien\Dokumente\Uni\Psychologie\8. Semester\Bachelorarbeit\Experimente\Winsconsin\desktop-version","False","mono","False","18","no","white","no","Ok","yes","768","psycho","27","27","C:/Users/maalt/OneDrive - Universität Wien/Dokumente/Uni/Psychologie/8. Semester/Bachelorarbeit/Experimente/Winsconsin/Random_log_files/subject-1.csv","shape","psycho","5","0","2","1","3","4","Melodramatic Milgram","4.0.13","0","1","1","1","0","a","blue","a","4","cross","58.44419999993988","58.44419999993988","2","psycho","star","triangle","cross","circle","1024","2","48000","-16","experiment","1","odd","30884.41000000239","108482.54250000173","105371.0487999997","16270.902500000375","NA","108554.28799999936","30884.265400000004","16274.750700002187","108483.44519999955","109054.64330000177","108465.66209999946","108465.58759999971","108464.33760000218","109054.58540000109","Wisconsin Card Sorting Test","13","56760.19630000519","28","1024"
"44","44","1959","1959","#3d3846","psycho","psycho","green","blue","red","yellow","psycho","0","0","c","0","28","28","0","0","28","0","0","28","28","28","28","28","28","Tue May  7 12:11:00 2024","The main experiment item","True","wsct-complete-opensesame4.osexp","C:\Users\maalt\OneDrive - Universität Wien\Dokumente\Uni\Psychologie\8. Semester\Bachelorarbeit\Experimente\Winsconsin\desktop-version","False","mono","False","18","no","white","no","Ok","yes","768","psycho","28","28","C:/Users/maalt/OneDrive - Universität Wien/Dokumente/Uni/Psychologie/8. Semester/Bachelorarbeit/Experimente/Winsconsin/Random_log_files/subject-1.csv","shape","psycho","5","0","1","2","4","3","Melodramatic Milgram","4.0.13","0","1","1","1","0","a","yellow","a","2","circle","67.34779999897","67.34779999897","2","psycho","star","cross","circle","triangle","1024","2","48000","-16","experiment","1","odd","30884.41000000239","109313.63620000047","105371.0487999997","16270.902500000375","NA","109391.92399999956","30884.265400000004","16274.750700002187","109313.92250000135","109892.37130000038","109299.70899999898","109299.53670000032","109294.5307000009","109892.31719999952","Wisconsin Card Sorting Test","13","56827.54410000416","29","1024"
"43","43","1895","1895","#3d3846","psycho","psycho","green","yellow","blue","red","psycho","0","0","d","0","29","29","0","0","29","0","0","29","29","29","29","29","29","Tue May  7 12:11:00 2024","The main experiment item","True","wsct-complete-opensesame4.osexp","C:\Users\maalt\OneDrive - Universität Wien\Dokumente\Uni\Psychologie\8. Semester\Bachelorarbeit\Experimente\Winsconsin\desktop-version","False","mono","False","18","no","white","no","Ok","yes","768","psycho","29","29","C:/Users/maalt/OneDrive - Universität Wien/Dokumente/Uni/Psychologie/8. Semester/Bachelorarbeit/Experimente/Winsconsin/Random_log_files/subject-1.csv","shape","psycho","5","0","3","4","2","1","Melodramatic Milgram","4.0.13","1","0","1","1","0","a","green","a","2","cross","44.137200002296595","44.137200002296595","2","psycho","triangle","circle","star","cross","1024","2","48000","-16","experiment","1","odd","30884.41000000239","110136.75710000098","105371.0487999997","16270.902500000375","NA","110191.9338000007","30884.265400000004","16274.750700002187","110137.0852","110692.8783000003","110123.45990000176","110123.37359999947","110122.1157","110692.80880000224","Wisconsin Card Sorting Test","13","56871.68130000646","30","1024"
"41","41","1839","1839","#3d3846","psycho","psycho","blue","yellow","red","green","psycho","0","0","b","0","30","30","0","0","30","0","0","30","30","30","30","30","30","Tue May  7 12:11:00 2024","The main experiment item","True","wsct-complete-opensesame4.osexp","C:\Users\maalt\OneDrive - Universität Wien\Dokumente\Uni\Psychologie\8. Semester\Bachelorarbeit\Experimente\Winsconsin\desktop-version","False","mono","False","18","no","white","no","Ok","yes","768","psycho","30","30","C:/Users/maalt/OneDrive - Universität Wien/Dokumente/Uni/Psychologie/8. Semester/Bachelorarbeit/Experimente/Winsconsin/Random_log_files/subject-1.csv","shape","psycho","5","0","3","2","1","4","Melodramatic Milgram","4.0.13","1","1","0","1","0","a","green","a","3","circle","141.9190000015078","141.9190000015078","2","psycho","cross","circle","triangle","star","1024","2","48000","-16","experiment","1","odd","30884.41000000239","110939.19820000156","105371.0487999997","16270.902500000375","NA","111091.10560000045","30884.265400000004","16274.750700002187","110939.46900000083","111591.91220000139","110926.94390000179","110926.8090000005","110925.38269999932","111591.85580000121","Wisconsin Card Sorting Test","13","57013.600300007965","31","1024"
"40","40","1785","1785","#3d3846","psycho","psycho","yellow","blue","red","green","psycho","0","0","d","0","31","31","0","0","31","0","0","31","31","31","31","31","31","Tue May  7 12:11:00 2024","The main experiment item","True","wsct-complete-opensesame4.osexp","C:\Users\maalt\OneDrive - Universität Wien\Dokumente\Uni\Psychologie\8. Semester\Bachelorarbeit\Experimente\Winsconsin\desktop-version","False","mono","False","18","no","white","no","Ok","yes","768","psycho","31","31","C:/Users/maalt/OneDrive - Universität Wien/Dokumente/Uni/Psychologie/8. Semester/Bachelorarbeit/Experimente/Winsconsin/Random_log_files/subject-1.csv","shape","psycho","5","0","3","4","1","2","Melodramatic Milgram","4.0.13","0","1","1","1","0","a","blue","a","1","circle","124.81100000150036","124.81100000150036","2","psycho","cross","star","triangle","circle","1024","2","48000","-16","experiment","1","odd","30884.41000000239","111806.02350000117","105371.0487999997","16270.902500000375","NA","111939.37940000251","30884.265400000004","16274.750700002187","111806.39510000037","112439.6708000022","111792.8372000024","111792.76039999968","111792.45640000227","112439.61720000152","Wisconsin Card Sorting Test","13","57138.411300009466","32","1024"
"39","39","1732","1732","#3d3846","psycho","psycho","yellow","green","blue","red","psycho","0","0","b","0","32","32","0","0","32","0","0","32","32","32","32","32","32","Tue May  7 12:11:00 2024","The main experiment item","True","wsct-complete-opensesame4.osexp","C:\Users\maalt\OneDrive - Universität Wien\Dokumente\Uni\Psychologie\8. Semester\Bachelorarbeit\Experimente\Winsconsin\desktop-version","False","mono","False","18","no","white","no","Ok","yes","768","psycho","32","32","C:/Users/maalt/OneDrive - Universität Wien/Dokumente/Uni/Psychologie/8. Semester/Bachelorarbeit/Experimente/Winsconsin/Random_log_files/subject-1.csv","shape","psycho","5","0","4","2","3","1","Melodramatic Milgram","4.0.13","1","1","0","1","0","a","yellow","a","1","circle","24.130900001182454","24.130900001182454","2","psycho","star","circle","cross","triangle","1024","2","48000","-16","experiment","1","odd","30884.41000000239","112656.735200002","105371.0487999997","16270.902500000375","NA","112689.84289999935","30884.265400000004","16274.750700002187","112657.00600000127","113190.34870000178","112644.93550000043","112644.88940000228","112644.70140000049","113190.27859999915","Wisconsin Card Sorting Test","13","57162.54220001065","33","1024"
"38","38","1681","1681","#3d3846","psycho","psycho","blue","green","yellow","red","psycho","0","0","b","0","33","33","0","0","33","0","0","33","33","33","33","33","33","Tue May  7 12:11:00 2024","The main experiment item","True","wsct-complete-opensesame4.osexp","C:\Users\maalt\OneDrive - Universität Wien\Dokumente\Uni\Psychologie\8. Semester\Bachelorarbeit\Experimente\Winsconsin\desktop-version","False","mono","False","18","no","white","no","Ok","yes","768","psycho","33","33","C:/Users/maalt/OneDrive - Universität Wien/Dokumente/Uni/Psychologie/8. Semester/Bachelorarbeit/Experimente/Winsconsin/Random_log_files/subject-1.csv","shape","psycho","5","0","1","2","4","3","Melodramatic Milgram","4.0.13","0","1","1","1","0","a","red","a","4","triangle","4.859500000748085","4.859500000748085","2","psycho","cross","triangle","star","circle","1024","2","48000","-16","experiment","1","odd","30884.41000000239","113416.44050000104","105371.0487999997","16270.902500000375","NA","113437.2942000009","30884.265400000004","16274.750700002187","113416.73570000057","113938.08189999982","113405.56330000254","113405.50040000016","113405.28339999946","113938.00829999964","Wisconsin Card Sorting Test","13","57167.401700011396","34","1024"
"37","37","1648","1648","#3d3846","psycho","psycho","blue","green","yellow","red","psycho","0","0","d","0","34","34","0","0","34","0","0","34","34","34","34","34","34","Tue May  7 12:11:00 2024","The main experiment item","True","wsct-complete-opensesame4.osexp","C:\Users\maalt\OneDrive - Universität Wien\Dokumente\Uni\Psychologie\8. Semester\Bachelorarbeit\Experimente\Winsconsin\desktop-version","False","mono","False","18","no","white","no","Ok","yes","768","psycho","34","34","C:/Users/maalt/OneDrive - Universität Wien/Dokumente/Uni/Psychologie/8. Semester/Bachelorarbeit/Experimente/Winsconsin/Random_log_files/subject-1.csv","shape","psycho","5","0","2","1","4","3","Melodramatic Milgram","4.0.13","0","1","1","1","0","a","green","a","4","triangle","533.6877000008826","533.6877000008826","2","psycho","cross","circle","star","triangle","1024","2","48000","-16","experiment","1","odd","30884.41000000239","114177.29540000073","105371.0487999997","16270.902500000375","NA","114719.8055000008","30884.265400000004","16274.750700002187","114177.61579999933","115220.1195000016","114166.98860000179","114166.88889999932","114165.35450000083","115220.05400000126","Wisconsin Card Sorting Test","13","57701.08940001228","35","1024"
"36","36","1604","1604","#3d3846","psycho","psycho","green","red","yellow","blue","psycho","0","0","c","0","35","35","0","0","35","0","0","35","35","35","35","35","35","Tue May  7 12:11:00 2024","The main experiment item","True","wsct-complete-opensesame4.osexp","C:\Users\maalt\OneDrive - Universität Wien\Dokumente\Uni\Psychologie\8. Semester\Bachelorarbeit\Experimente\Winsconsin\desktop-version","False","mono","False","18","no","white","no","Ok","yes","768","psycho","35","35","C:/Users/maalt/OneDrive - Universität Wien/Dokumente/Uni/Psychologie/8. Semester/Bachelorarbeit/Experimente/Winsconsin/Random_log_files/subject-1.csv","shape","psycho","5","0","2","4","1","3","Melodramatic Milgram","4.0.13","1","0","1","1","0","a","blue","a","2","star","71.72169999830658","71.72169999830658","2","psycho","triangle","cross","star","circle","1024","2","48000","-16","experiment","1","odd","30884.41000000239","115419.37400000097","105371.0487999997","16270.902500000375","NA","115499.61149999945","30884.265400000004","16274.750700002187","115419.601900001","115999.94290000177","115407.93870000198","115407.90670000206","115407.75120000035","115999.891200001","Wisconsin Card Sorting Test","13","57772.811100010586","36","1024"
"35","35","1562","1562","#3d3846","psycho","psycho","blue","green","red","yellow","psycho","0","0","c","0","36","36","0","0","36","0","0","36","36","36","36","36","36","Tue May  7 12:11:00 2024","The main experiment item","True","wsct-complete-opensesame4.osexp","C:\Users\maalt\OneDrive - Universität Wien\Dokumente\Uni\Psychologie\8. Semester\Bachelorarbeit\Experimente\Winsconsin\desktop-version","False","mono","False","18","no","white","no","Ok","yes","768","psycho","36","36","C:/Users/maalt/OneDrive - Universität Wien/Dokumente/Uni/Psychologie/8. Semester/Bachelorarbeit/Experimente/Winsconsin/Random_log_files/subject-1.csv","shape","psycho","5","0","1","2","3","4","Melodramatic Milgram","4.0.13","1","1","1","0","0","a","blue","a","2","star","29.818200000590878","29.818200000590878","2","psycho","triangle","cross","star","circle","1024","2","48000","-16","experiment","1","odd","30884.41000000239","116221.40130000116","105371.0487999997","16270.902500000375","NA","116263.30260000032","30884.265400000004","16274.750700002187","116221.68600000077","116763.83030000216","116211.97650000249","116211.93530000164","116211.70250000068","116763.77689999936","Wisconsin Card Sorting Test","13","57802.62930001118","37","1024"
"36","36","1522","1522","#3d3846","psycho","psycho","red","green","blue","yellow","psycho","1","1","a","0","37","37","0","0","37","0","0","37","37","37","37","37","37","Tue May  7 12:11:00 2024","The main experiment item","True","wsct-complete-opensesame4.osexp","C:\Users\maalt\OneDrive - Universität Wien\Dokumente\Uni\Psychologie\8. Semester\Bachelorarbeit\Experimente\Winsconsin\desktop-version","False","mono","False","18","no","white","no","Ok","yes","768","psycho","37","37","C:/Users/maalt/OneDrive - Universität Wien/Dokumente/Uni/Psychologie/8. Semester/Bachelorarbeit/Experimente/Winsconsin/Random_log_files/subject-1.csv","shape","psycho","5","1","3","4","1","2","Melodramatic Milgram","4.0.13","1","1","1","0","0","a","blue","a","4","cross","41.11919999922975","41.11919999922975","2","psycho","cross","triangle","star","circle","1024","2","48000","-16","experiment","1","odd","30884.41000000239","116999.37240000145","117052.02869999994","16270.902500000375","NA","116263.30260000032","30884.265400000004","16274.750700002187","117000.1454000012","117552.41229999956","116982.82580000159","116982.77760000201","116982.6146000014","117552.35800000082","Wisconsin Card Sorting Test","14","57843.748500010406","38","1024"
"35","35","1483","1483","#3d3846","psycho","psycho","blue","red","green","yellow","psycho","0","0","c","0","38","38","0","0","38","0","0","38","38","38","38","38","38","Tue May  7 12:11:00 2024","The main experiment item","True","wsct-complete-opensesame4.osexp","C:\Users\maalt\OneDrive - Universität Wien\Dokumente\Uni\Psychologie\8. Semester\Bachelorarbeit\Experimente\Winsconsin\desktop-version","False","mono","False","18","no","white","no","Ok","yes","768","psycho","38","38","C:/Users/maalt/OneDrive - Universität Wien/Dokumente/Uni/Psychologie/8. Semester/Bachelorarbeit/Experimente/Winsconsin/Random_log_files/subject-1.csv","shape","psycho","5","0","2","1","4","3","Melodramatic Milgram","4.0.13","0","1","1","1","0","a","red","a","3","triangle","22.49189999929513","22.49189999929513","2","psycho","star","circle","triangle","cross","1024","2","48000","-16","experiment","1","odd","30884.41000000239","117808.48030000197","117052.02869999994","16270.902500000375","NA","117843.63280000252","30884.265400000004","16274.750700002187","117808.77370000235","118343.95919999952","117793.48260000188","117793.4196999995","117793.20650000227","118343.90260000146","Wisconsin Card Sorting Test","14","57866.2404000097","39","1024"
"35","35","1456","1456","#3d3846","psycho","psycho","blue","red","green","yellow","psycho","0","0","d","0","39","39","0","0","39","0","0","39","39","39","39","39","39","Tue May  7 12:11:00 2024","The main experiment item","True","wsct-complete-opensesame4.osexp","C:\Users\maalt\OneDrive - Universität Wien\Dokumente\Uni\Psychologie\8. Semester\Bachelorarbeit\Experimente\Winsconsin\desktop-version","False","mono","False","18","no","white","no","Ok","yes","768","psycho","39","39","C:/Users/maalt/OneDrive - Universität Wien/Dokumente/Uni/Psychologie/8. Semester/Bachelorarbeit/Experimente/Winsconsin/Random_log_files/subject-1.csv","shape","psycho","5","0","1","2","3","4","Melodramatic Milgram","4.0.13","0","1","1","1","0","a","green","a","2","star","379.6321000008902","379.6321000008902","2","psycho","circle","cross","triangle","star","1024","2","48000","-16","experiment","1","odd","30884.41000000239","118620.52880000192","117052.02869999994","16270.902500000375","NA","119011.92169999922","30884.265400000004","16274.750700002187","118621.5532999995","119512.19950000086","118597.7669999993","118597.71270000056","118597.52600000138","119512.14760000221","Wisconsin Card Sorting Test","14","58245.87250001059","40","1024"
"34","34","1430","1430","#3d3846","psycho","psycho","yellow","red","green","blue","psycho","0","0","b","0","40","40","0","0","40","0","0","40","40","40","40","40","40","Tue May  7 12:11:00 2024","The main experiment item","True","wsct-complete-opensesame4.osexp","C:\Users\maalt\OneDrive - Universität Wien\Dokumente\Uni\Psychologie\8. Semester\Bachelorarbeit\Experimente\Winsconsin\desktop-version","False","mono","False","18","no","white","no","Ok","yes","768","psycho","40","40","C:/Users/maalt/OneDrive - Universität Wien/Dokumente/Uni/Psychologie/8. Semester/Bachelorarbeit/Experimente/Winsconsin/Random_log_files/subject-1.csv","shape","psycho","5","0","2","3","1","4","Melodramatic Milgram","4.0.13","0","1","1","1","0","a","green","a","4","star","397.73889999923995","397.73889999923995","2","psycho","cross","star","triangle","circle","1024","2","48000","-16","experiment","1","odd","30884.41000000239","119773.54520000154","117052.02869999994","16270.902500000375","NA","120186.44920000224","30884.265400000004","16274.750700002187","119773.8442000009","120687.07240000003","119760.7147000017","119760.65139999992","119759.2278000011","120687.01399999918","Wisconsin Card Sorting Test","14","58643.61140000983","41","1024"
"33","33","1398","1398","#3d3846","psycho","psycho","blue","green","yellow","red","psycho","0","0","c","0","41","41","0","0","41","0","0","41","41","41","41","41","41","Tue May  7 12:11:00 2024","The main experiment item","True","wsct-complete-opensesame4.osexp","C:\Users\maalt\OneDrive - Universität Wien\Dokumente\Uni\Psychologie\8. Semester\Bachelorarbeit\Experimente\Winsconsin\desktop-version","False","mono","False","18","no","white","no","Ok","yes","768","psycho","41","41","C:/Users/maalt/OneDrive - Universität Wien/Dokumente/Uni/Psychologie/8. Semester/Bachelorarbeit/Experimente/Winsconsin/Random_log_files/subject-1.csv","shape","psycho","5","0","3","4","2","1","Melodramatic Milgram","4.0.13","1","0","1","1","0","a","blue","a","1","cross","81.12260000052629","81.12260000052629","2","psycho","circle","triangle","cross","star","1024","2","48000","-16","experiment","1","odd","30884.41000000239","120919.89400000239","117052.02869999994","16270.902500000375","NA","121010.13059999968","30884.265400000004","16274.750700002187","120920.20559999946","121510.58460000058","120905.0535000024","120905.01869999935","120904.88969999933","121510.5352999999","Wisconsin Card Sorting Test","14","58724.73400001036","42","1024"
"32","32","1368","1368","#3d3846","psycho","psycho","yellow","blue","red","green","psycho","0","0","b","0","42","42","0","0","42","0","0","42","42","42","42","42","42","Tue May  7 12:11:00 2024","The main experiment item","True","wsct-complete-opensesame4.osexp","C:\Users\maalt\OneDrive - Universität Wien\Dokumente\Uni\Psychologie\8. Semester\Bachelorarbeit\Experimente\Winsconsin\desktop-version","False","mono","False","18","no","white","no","Ok","yes","768","psycho","42","42","C:/Users/maalt/OneDrive - Universität Wien/Dokumente/Uni/Psychologie/8. Semester/Bachelorarbeit/Experimente/Winsconsin/Random_log_files/subject-1.csv","shape","psycho","5","0","4","1","2","3","Melodramatic Milgram","4.0.13","1","1","0","1","0","a","yellow","a","3","star","112.84890000024461","112.84890000024461","2","psycho","circle","star","triangle","cross","1024","2","48000","-16","experiment","1","odd","30884.41000000239","121708.24460000222","117052.02869999994","16270.902500000375","NA","121828.89070000238","30884.265400000004","16274.750700002187","121708.52190000005","122329.14620000156","121698.21710000178","121698.13210000211","121697.81779999903","122329.09370000198","Wisconsin Card Sorting Test","14","58837.5829000106","43","1024"
"31","31","1337","1337","#3d3846","psycho","psycho","yellow","blue","red","green","psycho","0","0","b","0","43","43","0","0","43","0","0","43","43","43","43","43","43","Tue May  7 12:11:00 2024","The main experiment item","True","wsct-complete-opensesame4.osexp","C:\Users\maalt\OneDrive - Universität Wien\Dokumente\Uni\Psychologie\8. Semester\Bachelorarbeit\Experimente\Winsconsin\desktop-version","False","mono","False","18","no","white","no","Ok","yes","768","psycho","43","43","C:/Users/maalt/OneDrive - Universität Wien/Dokumente/Uni/Psychologie/8. Semester/Bachelorarbeit/Experimente/Winsconsin/Random_log_files/subject-1.csv","shape","psycho","5","0","1","2","3","4","Melodramatic Milgram","4.0.13","0","1","1","1","0","a","green","a","3","triangle","4.54610000087996","4.54610000087996","2","psycho","circle","triangle","cross","star","1024","2","48000","-16","experiment","1","odd","30884.41000000239","122556.52510000073","117052.02869999994","16270.902500000375","NA","122573.14279999991","30884.265400000004","16274.750700002187","122556.7712000011","123073.62700000158","122544.34469999978","122544.29520000122","122544.03060000186","123073.56970000183","Wisconsin Card Sorting Test","14","58842.12900001148","44","1024"
"31","31","1308","1308","#3d3846","psycho","psycho","red","yellow","green","blue","psycho","0","0","b","0","44","44","0","0","44","0","0","44","44","44","44","44","44","Tue May  7 12:11:00 2024","The main experiment item","True","wsct-complete-opensesame4.osexp","C:\Users\maalt\OneDrive - Universität Wien\Dokumente\Uni\Psychologie\8. Semester\Bachelorarbeit\Experimente\Winsconsin\desktop-version","False","mono","False","18","no","white","no","Ok","yes","768","psycho","44","44","C:/Users/maalt/OneDrive - Universität Wien/Dokumente/Uni/Psychologie/8. Semester/Bachelorarbeit/Experimente/Winsconsin/Random_log_files/subject-1.csv","shape","psycho","5","0","1","4","3","2","Melodramatic Milgram","4.0.13","1","1","1","0","0","a","green","a","1","triangle","21.96219999677851","21.96219999677851","2","psycho","star","triangle","circle","cross","1024","2","48000","-16","experiment","1","odd","30884.41000000239","123309.04940000255","117052.02869999994","16270.902500000375","NA","123343.28090000054","30884.265400000004","16274.750700002187","123309.23860000257","123843.61229999922","123295.3966999994","123295.2976000015","123295.01890000029","123843.56340000159","Wisconsin Card Sorting Test","14","58864.09120000826","45","1024"
"30","30","1286","1286","#3d3846","psycho","psycho","green","yellow","blue","red","psycho","0","0","b","0","45","45","0","0","45","0","0","45","45","45","45","45","45","Tue May  7 12:11:00 2024","The main experiment item","True","wsct-complete-opensesame4.osexp","C:\Users\maalt\OneDrive - Universität Wien\Dokumente\Uni\Psychologie\8. Semester\Bachelorarbeit\Experimente\Winsconsin\desktop-version","False","mono","False","18","no","white","no","Ok","yes","768","psycho","45","45","C:/Users/maalt/OneDrive - Universität Wien/Dokumente/Uni/Psychologie/8. Semester/Bachelorarbeit/Experimente/Winsconsin/Random_log_files/subject-1.csv","shape","psycho","5","0","1","3","4","2","Melodramatic Milgram","4.0.13","0","1","1","1","0","a","red","a","4","triangle","327.4786000001768","327.4786000001768","2","psycho","cross","triangle","circle","star","1024","2","48000","-16","experiment","1","odd","30884.41000000239","124093.35930000088","117052.02869999994","16270.902500000375","NA","124429.10169999959","30884.265400000004","16274.750700002187","124093.61630000058","124929.76690000069","124083.11820000017","124083.02750000075","124081.05710000018","124929.70720000085","Wisconsin Card Sorting Test","14","59191.56980000844","46","1024"
"29","29","1260","1260","#3d3846","psycho","psycho","blue","green","red","yellow","psycho","0","0","c","0","46","46","0","0","46","0","0","46","46","46","46","46","46","Tue May  7 12:11:00 2024","The main experiment item","True","wsct-complete-opensesame4.osexp","C:\Users\maalt\OneDrive - Universität Wien\Dokumente\Uni\Psychologie\8. Semester\Bachelorarbeit\Experimente\Winsconsin\desktop-version","False","mono","False","18","no","white","no","Ok","yes","768","psycho","46","46","C:/Users/maalt/OneDrive - Universität Wien/Dokumente/Uni/Psychologie/8. Semester/Bachelorarbeit/Experimente/Winsconsin/Random_log_files/subject-1.csv","shape","psycho","5","0","2","4","1","3","Melodramatic Milgram","4.0.13","1","1","1","0","0","a","green","a","2","star","44.64250000091852","44.64250000091852","2","psycho","cross","triangle","star","circle","1024","2","48000","-16","experiment","1","odd","30884.41000000239","125146.86450000227","117052.02869999994","16270.902500000375","NA","125206.74280000094","30884.265400000004","16274.750700002187","125147.140699999","125707.57620000222","125133.7452000007","125133.70819999909","125133.47369999974","125707.50880000196","Wisconsin Card Sorting Test","14","59236.212300009356","47","1024"
"29","29","1239","1239","#3d3846","psycho","psycho","yellow","blue","red","green","psycho","0","0","b","0","47","47","0","0","47","0","0","47","47","47","47","47","47","Tue May  7 12:11:00 2024","The main experiment item","True","wsct-complete-opensesame4.osexp","C:\Users\maalt\OneDrive - Universität Wien\Dokumente\Uni\Psychologie\8. Semester\Bachelorarbeit\Experimente\Winsconsin\desktop-version","False","mono","False","18","no","white","no","Ok","yes","768","psycho","47","47","C:/Users/maalt/OneDrive - Universität Wien/Dokumente/Uni/Psychologie/8. Semester/Bachelorarbeit/Experimente/Winsconsin/Random_log_files/subject-1.csv","shape","psycho","5","0","3","2","4","1","Melodramatic Milgram","4.0.13","1","1","0","1","0","a","green","a","3","circle","243.2689000015671","243.2689000015671","2","psycho","triangle","circle","star","cross","1024","2","48000","-16","experiment","1","odd","30884.41000000239","125967.69829999903","117052.02869999994","16270.902500000375","NA","126220.11290000228","30884.265400000004","16274.750700002187","125967.92210000058","126720.43549999944","125955.05360000243","125954.9689000014","125954.08830000088","126720.38590000011","Wisconsin Card Sorting Test","14","59479.48120001092","48","1024"
"28","28","1215","1215","#3d3846","psycho","psycho","blue","yellow","green","red","psycho","0","0","c","0","48","48","0","0","48","0","0","48","48","48","48","48","48","Tue May  7 12:11:00 2024","The main experiment item","True","wsct-complete-opensesame4.osexp","C:\Users\maalt\OneDrive - Universität Wien\Dokumente\Uni\Psychologie\8. Semester\Bachelorarbeit\Experimente\Winsconsin\desktop-version","False","mono","False","18","no","white","no","Ok","yes","768","psycho","48","48","C:/Users/maalt/OneDrive - Universität Wien/Dokumente/Uni/Psychologie/8. Semester/Bachelorarbeit/Experimente/Winsconsin/Random_log_files/subject-1.csv","shape","psycho","5","0","4","3","2","1","Melodramatic Milgram","4.0.13","1","0","1","1","0","a","blue","a","1","triangle","83.05440000185627","83.05440000185627","2","psycho","star","cross","triangle","circle","1024","2","48000","-16","experiment","1","odd","30884.41000000239","126927.97029999929","117052.02869999994","16270.902500000375","NA","127019.94040000136","30884.265400000004","16274.750700002187","126928.2604","127520.19790000122","126917.95859999911","126917.90129999936","126917.7039999995","127520.1444000013","Wisconsin Card Sorting Test","14","59562.53560001278","49","1024"
"28","28","1193","1193","#3d3846","psycho","psycho","red","yellow","blue","green","psycho","0","0","d","0","49","49","0","0","49","0","0","49","49","49","49","49","49","Tue May  7 12:11:00 2024","The main experiment item","True","wsct-complete-opensesame4.osexp","C:\Users\maalt\OneDrive - Universität Wien\Dokumente\Uni\Psychologie\8. Semester\Bachelorarbeit\Experimente\Winsconsin\desktop-version","False","mono","False","18","no","white","no","Ok","yes","768","psycho","49","49","C:/Users/maalt/OneDrive - Universität Wien/Dokumente/Uni/Psychologie/8. Semester/Bachelorarbeit/Experimente/Winsconsin/Random_log_files/subject-1.csv","shape","psycho","5","0","3","2","4","1","Melodramatic Milgram","4.0.13","1","1","0","1","0","a","red","a","2","triangle","107.80670000167447","107.80670000167447","2","psycho","cross","star","circle","triangle","1024","2","48000","-16","experiment","1","odd","30884.41000000239","127723.3221000024","117052.02869999994","16270.902500000375","NA","127839.41930000219","30884.265400000004","16274.750700002187","127723.56059999947","128339.71759999986","127711.25340000071","127711.19610000096","127710.99719999984","128339.66700000019","Wisconsin Card Sorting Test","14","59670.342300014454","50","1024"
"27","27","1170","1170","#3d3846","psycho","psycho","yellow","red","blue","green","psycho","0","0","c","0","50","50","0","0","50","0","0","50","50","50","50","50","50","Tue May  7 12:11:00 2024","The main experiment item","True","wsct-complete-opensesame4.osexp","C:\Users\maalt\OneDrive - Universität Wien\Dokumente\Uni\Psychologie\8. Semester\Bachelorarbeit\Experimente\Winsconsin\desktop-version","False","mono","False","18","no","white","no","Ok","yes","768","psycho","50","50","C:/Users/maalt/OneDrive - Universität Wien/Dokumente/Uni/Psychologie/8. Semester/Bachelorarbeit/Experimente/Winsconsin/Random_log_files/subject-1.csv","shape","psycho","5","0","1","2","4","3","Melodramatic Milgram","4.0.13","0","1","1","1","0","a","red","a","3","circle","30.89140000156476","30.89140000156476","2","psycho","cross","star","circle","triangle","1024","2","48000","-16","experiment","1","odd","30884.41000000239","128579.9791999998","117052.02869999994","16270.902500000375","NA","128619.72370000149","30884.265400000004","16274.750700002187","128580.2380999994","129120.05820000195","128567.52490000144","128567.49309999941","128567.3655999999","129120.00819999957","Wisconsin Card Sorting Test","14","59701.23370001602","51","1024"
"26","26","1149","1149","#3d3846","psycho","psycho","blue","green","red","yellow","psycho","0","0","d","0","51","51","0","0","51","0","0","51","51","51","51","51","51","Tue May  7 12:11:00 2024","The main experiment item","True","wsct-complete-opensesame4.osexp","C:\Users\maalt\OneDrive - Universität Wien\Dokumente\Uni\Psychologie\8. Semester\Bachelorarbeit\Experimente\Winsconsin\desktop-version","False","mono","False","18","no","white","no","Ok","yes","768","psycho","51","51","C:/Users/maalt/OneDrive - Universität Wien/Dokumente/Uni/Psychologie/8. Semester/Bachelorarbeit/Experimente/Winsconsin/Random_log_files/subject-1.csv","shape","psycho","5","0","4","1","2","3","Melodramatic Milgram","4.0.13","1","1","0","1","0","a","blue","a","1","cross","62.94010000056005","62.94010000056005","2","psycho","circle","star","triangle","cross","1024","2","48000","-16","experiment","1","odd","30884.41000000239","129338.06270000059","117052.02869999994","16270.902500000375","NA","129410.19360000064","30884.265400000004","16274.750700002187","129338.31110000028","129910.52069999932","129325.92450000084","129325.86029999948","129325.7263000014","129910.45020000092","Wisconsin Card Sorting Test","14","59764.17380001658","52","1024"
"28","28","1128","1128","#3d3846","psycho","psycho","green","blue","red","yellow","psycho","1","1","a","0","52","52","0","0","52","0","0","52","52","52","52","52","52","Tue May  7 12:11:00 2024","The main experiment item","True","wsct-complete-opensesame4.osexp","C:\Users\maalt\OneDrive - Universität Wien\Dokumente\Uni\Psychologie\8. Semester\Bachelorarbeit\Experimente\Winsconsin\desktop-version","False","mono","False","18","no","white","no","Ok","yes","768","psycho","52","52","C:/Users/maalt/OneDrive - Universität Wien/Dokumente/Uni/Psychologie/8. Semester/Bachelorarbeit/Experimente/Winsconsin/Random_log_files/subject-1.csv","shape","psycho","5","1","3","2","4","1","Melodramatic Milgram","4.0.13","1","1","1","0","0","a","blue","a","4","cross","34.953100002894644","34.953100002894644","2","psycho","cross","circle","triangle","star","1024","2","48000","-16","experiment","1","odd","30884.41000000239","130136.21310000235","130183.82489999931","16270.902500000375","NA","129410.19360000064","30884.265400000004","16274.750700002187","130136.495499999","130684.19320000248","130127.10499999957","130127.05679999999","130126.70760000037","130684.14520000078","Wisconsin Card Sorting Test","15","59799.12690001947","53","1024"
"29","29","1107","1107","#3d3846","psycho","psycho","blue","red","green","yellow","psycho","1","1","a","0","53","53","0","0","53","0","0","53","53","53","53","53","53","Tue May  7 12:11:00 2024","The main experiment item","True","wsct-complete-opensesame4.osexp","C:\Users\maalt\OneDrive - Universität Wien\Dokumente\Uni\Psychologie\8. Semester\Bachelorarbeit\Experimente\Winsconsin\desktop-version","False","mono","False","18","no","white","no","Ok","yes","768","psycho","53","53","C:/Users/maalt/OneDrive - Universität Wien/Dokumente/Uni/Psychologie/8. Semester/Bachelorarbeit/Experimente/Winsconsin/Random_log_files/subject-1.csv","shape","psycho","5","2","2","1","4","3","Melodramatic Milgram","4.0.13","1","1","1","0","0","a","green","a","1","star","30.065599999943515","30.065599999943515","2","psycho","star","triangle","cross","circle","1024","2","48000","-16","experiment","1","odd","30884.41000000239","130870.90539999917","130909.28239999994","16270.902500000375","NA","129410.19360000064","30884.265400000004","16274.750700002187","130871.14429999929","131409.76410000076","130862.32700000255","130862.29670000102","130862.17070000203","131409.7122000021","Wisconsin Card Sorting Test","16","59829.19250001942","54","1024"
"29","29","1088","1088","#3d3846","psycho","psycho","blue","red","yellow","green","psycho","0","0","c","0","54","54","0","0","54","0","0","54","54","54","54","54","54","Tue May  7 12:11:00 2024","The main experiment item","True","wsct-complete-opensesame4.osexp","C:\Users\maalt\OneDrive - Universität Wien\Dokumente\Uni\Psychologie\8. Semester\Bachelorarbeit\Experimente\Winsconsin\desktop-version","False","mono","False","18","no","white","no","Ok","yes","768","psycho","54","54","C:/Users/maalt/OneDrive - Universität Wien/Dokumente/Uni/Psychologie/8. Semester/Bachelorarbeit/Experimente/Winsconsin/Random_log_files/subject-1.csv","shape","psycho","5","0","1","4","3","2","Melodramatic Milgram","4.0.13","1","1","1","0","0","a","blue","a","4","circle","63.14299999939976","63.14299999939976","2","psycho","triangle","cross","circle","star","1024","2","48000","-16","experiment","1","odd","30884.41000000239","131607.747500002","130909.28239999994","16270.902500000375","NA","131679.69079999966","30884.265400000004","16274.750700002187","131608.01210000136","132179.95259999952","131595.52959999928","131595.4769000018","131595.30290000112","132179.89990000206","Wisconsin Card Sorting Test","16","59892.33550001882","55","1024"
"28","28","1069","1069","#3d3846","psycho","psycho","green","red","blue","yellow","psycho","0","0","c","0","55","55","0","0","55","0","0","55","55","55","55","55","55","Tue May  7 12:11:00 2024","The main experiment item","True","wsct-complete-opensesame4.osexp","C:\Users\maalt\OneDrive - Universität Wien\Dokumente\Uni\Psychologie\8. Semester\Bachelorarbeit\Experimente\Winsconsin\desktop-version","False","mono","False","18","no","white","no","Ok","yes","768","psycho","55","55","C:/Users/maalt/OneDrive - Universität Wien/Dokumente/Uni/Psychologie/8. Semester/Bachelorarbeit/Experimente/Winsconsin/Random_log_files/subject-1.csv","shape","psycho","5","0","3","4","2","1","Melodramatic Milgram","4.0.13","0","1","1","1","0","a","red","a","1","star","22.998799999186303","22.998799999186303","2","psycho","circle","cross","star","triangle","1024","2","48000","-16","experiment","1","odd","30884.41000000239","132388.05649999995","130909.28239999994","16270.902500000375","NA","132420.19179999988","30884.265400000004","16274.750700002187","132388.3108000009","132920.47390000153","132374.67950000064","132374.5624000003","132374.3125000001","132920.42330000186","Wisconsin Card Sorting Test","16","59915.334300018","56","1024"
"28","28","1051","1051","#3d3846","psycho","psycho","blue","green","yellow","red","psycho","0","0","d","0","56","56","0","0","56","0","0","56","56","56","56","56","56","Tue May  7 12:11:00 2024","The main experiment item","True","wsct-complete-opensesame4.osexp","C:\Users\maalt\OneDrive - Universität Wien\Dokumente\Uni\Psychologie\8. Semester\Bachelorarbeit\Experimente\Winsconsin\desktop-version","False","mono","False","18","no","white","no","Ok","yes","768","psycho","56","56","C:/Users/maalt/OneDrive - Universität Wien/Dokumente/Uni/Psychologie/8. Semester/Bachelorarbeit/Experimente/Winsconsin/Random_log_files/subject-1.csv","shape","psycho","5","0","2","3","4","1","Melodramatic Milgram","4.0.13","0","1","1","1","0","a","yellow","a","3","triangle","21.6805000018212","21.6805000018212","2","psycho","cross","circle","star","triangle","1024","2","48000","-16","experiment","1","odd","30884.41000000239","133149.05910000016","130909.28239999994","16270.902500000375","NA","133180.30400000134","30884.265400000004","16274.750700002187","133149.3546999991","133680.57319999934","133135.42950000192","133135.37400000132","133135.06570000027","133680.52380000154","Wisconsin Card Sorting Test","16","59937.014800019824","57","1024"
"27","27","1037","1037","#3d3846","psycho","psycho","green","yellow","red","blue","psycho","0","0","d","0","57","57","0","0","57","0","0","57","57","57","57","57","57","Tue May  7 12:11:00 2024","The main experiment item","True","wsct-complete-opensesame4.osexp","C:\Users\maalt\OneDrive - Universität Wien\Dokumente\Uni\Psychologie\8. Semester\Bachelorarbeit\Experimente\Winsconsin\desktop-version","False","mono","False","18","no","white","no","Ok","yes","768","psycho","57","57","C:/Users/maalt/OneDrive - Universität Wien/Dokumente/Uni/Psychologie/8. Semester/Bachelorarbeit/Experimente/Winsconsin/Random_log_files/subject-1.csv","shape","psycho","5","0","4","2","3","1","Melodramatic Milgram","4.0.13","1","1","0","1","0","a","yellow","a","4","star","250.18400000044494","250.18400000044494","2","psycho","circle","cross","triangle","star","1024","2","48000","-16","experiment","1","odd","30884.41000000239","133920.30950000117","130909.28239999994","16270.902500000375","NA","134180.84739999904","30884.265400000004","16274.750700002187","133920.92200000116","134681.26610000036","133904.03290000177","133903.9507000016","133902.9597000008","134681.16849999933","Wisconsin Card Sorting Test","16","60187.19880002027","58","1024"
"27","27","1025","1025","#3d3846","psycho","psycho","blue","yellow","green","red","psycho","0","0","b","0","58","58","0","0","58","0","0","58","58","58","58","58","58","Tue May  7 12:11:00 2024","The main experiment item","True","wsct-complete-opensesame4.osexp","C:\Users\maalt\OneDrive - Universität Wien\Dokumente\Uni\Psychologie\8. Semester\Bachelorarbeit\Experimente\Winsconsin\desktop-version","False","mono","False","18","no","white","no","Ok","yes","768","psycho","58","58","C:/Users/maalt/OneDrive - Universität Wien/Dokumente/Uni/Psychologie/8. Semester/Bachelorarbeit/Experimente/Winsconsin/Random_log_files/subject-1.csv","shape","psycho","5","0","3","1","4","2","Melodramatic Milgram","4.0.13","0","1","1","1","0","a","green","a","2","star","313.63449999844306","313.63449999844306","2","psycho","cross","star","triangle","circle","1024","2","48000","-16","experiment","1","odd","30884.41000000239","135156.89760000168","130909.28239999994","16270.902500000375","NA","135490.59130000023","30884.265400000004","16274.750700002187","135157.70460000203","135991.5602000001","135139.8756000017","135139.7708000004","135137.59130000108","135991.42740000025","Wisconsin Card Sorting Test","16","60500.83330001871","59","1024"
"26","26","1011","1011","#3d3846","psycho","psycho","yellow","blue","red","green","psycho","0","0","d","0","59","59","0","0","59","0","0","59","59","59","59","59","59","Tue May  7 12:11:00 2024","The main experiment item","True","wsct-complete-opensesame4.osexp","C:\Users\maalt\OneDrive - Universität Wien\Dokumente\Uni\Psychologie\8. Semester\Bachelorarbeit\Experimente\Winsconsin\desktop-version","False","mono","False","18","no","white","no","Ok","yes","768","psycho","59","59","C:/Users/maalt/OneDrive - Universität Wien/Dokumente/Uni/Psychologie/8. Semester/Bachelorarbeit/Experimente/Winsconsin/Random_log_files/subject-1.csv","shape","psycho","5","0","3","4","2","1","Melodramatic Milgram","4.0.13","0","1","1","1","0","a","blue","a","2","cross","218.6303999988013","218.6303999988013","2","psycho","circle","star","triangle","cross","1024","2","48000","-16","experiment","1","odd","30884.41000000239","136421.57679999946","130909.28239999994","16270.902500000375","NA","136667.49560000244","30884.265400000004","16274.750700002187","136422.63260000254","137168.88590000235","136401.099900002","136401.02620000107","136400.73910000137","137168.76970000158","Wisconsin Card Sorting Test","16","60719.46370001751","60","1024"
"26","26","999","999","#3d3846","psycho","psycho","red","yellow","blue","green","psycho","0","0","d","0","60","60","0","0","60","0","0","60","60","60","60","60","60","Tue May  7 12:11:00 2024","The main experiment item","True","wsct-complete-opensesame4.osexp","C:\Users\maalt\OneDrive - Universität Wien\Dokumente\Uni\Psychologie\8. Semester\Bachelorarbeit\Experimente\Winsconsin\desktop-version","False","mono","False","18","no","white","no","Ok","yes","768","psycho","60","60","C:/Users/maalt/OneDrive - Universität Wien/Dokumente/Uni/Psychologie/8. Semester/Bachelorarbeit/Experimente/Winsconsin/Random_log_files/subject-1.csv","shape","psycho","5","0","1","3","2","4","Melodramatic Milgram","4.0.13","0","1","1","1","0","a","blue","a","3","cross","241.0952999998699","241.0952999998699","2","psycho","triangle","circle","star","cross","1024","2","48000","-16","experiment","1","odd","30884.41000000239","137479.77900000114","130909.28239999994","16270.902500000375","NA","137733.04730000018","30884.265400000004","16274.750700002187","137480.44070000105","138233.38720000174","137463.001600001","137462.94910000142","137462.6759999992","138233.32970000047","Wisconsin Card Sorting Test","16","60960.55900001738","61","1024"
"25","25","986","986","#3d3846","psycho","psycho","blue","yellow","green","red","psycho","0","0","d","0","61","61","0","0","61","0","0","61","61","61","61","61","61","Tue May  7 12:11:00 2024","The main experiment item","True","wsct-complete-opensesame4.osexp","C:\Users\maalt\OneDrive - Universität Wien\Dokumente\Uni\Psychologie\8. Semester\Bachelorarbeit\Experimente\Winsconsin\desktop-version","False","mono","False","18","no","white","no","Ok","yes","768","psycho","61","61","C:/Users/maalt/OneDrive - Universität Wien/Dokumente/Uni/Psychologie/8. Semester/Bachelorarbeit/Experimente/Winsconsin/Random_log_files/subject-1.csv","shape","psycho","5","0","2","1","3","4","Melodramatic Milgram","4.0.13","1","1","0","1","0","a","blue","a","1","circle","212.95520000057877","212.95520000057877","2","psycho","star","triangle","cross","circle","1024","2","48000","-16","experiment","1","odd","30884.41000000239","138468.08769999916","130909.28239999994","16270.902500000375","NA","138689.08770000053","30884.265400000004","16274.750700002187","138468.33740000147","139189.48530000125","138458.71660000194","138458.6488999994","138458.47689999937","139189.4267000025","Wisconsin Card Sorting Test","16","61173.51420001796","62","1024"
"26","26","974","974","#3d3846","psycho","psycho","blue","red","yellow","green","psycho","1","1","a","0","62","62","0","0","62","0","0","62","62","62","62","62","62","Tue May  7 12:11:00 2024","The main experiment item","True","wsct-complete-opensesame4.osexp","C:\Users\maalt\OneDrive - Universität Wien\Dokumente\Uni\Psychologie\8. Semester\Bachelorarbeit\Experimente\Winsconsin\desktop-version","False","mono","False","18","no","white","no","Ok","yes","768","psycho","62","62","C:/Users/maalt/OneDrive - Universität Wien/Dokumente/Uni/Psychologie/8. Semester/Bachelorarbeit/Experimente/Winsconsin/Random_log_files/subject-1.csv","shape","psycho","5","1","3","1","4","2","Melodramatic Milgram","4.0.13","1","1","1","0","0","a","yellow","a","1","star","205.81989999845973","205.81989999845973","2","psycho","star","circle","cross","triangle","1024","2","48000","-16","experiment","1","odd","30884.41000000239","139484.457999999","139701.31540000148","16270.902500000375","NA","138689.08770000053","30884.265400000004","16274.750700002187","139485.29360000248","140201.80380000238","139466.2759999992","139466.21589999995","139465.9926000022","140201.74210000187","Wisconsin Card Sorting Test","17","61379.33410001642","63","1024"
"26","26","960","960","#3d3846","psycho","psycho","red","yellow","blue","green","psycho","0","0","c","0","63","63","0","0","63","0","0","63","63","63","63","63","63","Tue May  7 12:11:00 2024","The main experiment item","True","wsct-complete-opensesame4.osexp","C:\Users\maalt\OneDrive - Universität Wien\Dokumente\Uni\Psychologie\8. Semester\Bachelorarbeit\Experimente\Winsconsin\desktop-version","False","mono","False","18","no","white","no","Ok","yes","768","psycho","63","63","C:/Users/maalt/OneDrive - Universität Wien/Dokumente/Uni/Psychologie/8. Semester/Bachelorarbeit/Experimente/Winsconsin/Random_log_files/subject-1.csv","shape","psycho","5","0","3","4","1","2","Melodramatic Milgram","4.0.13","1","0","1","1","0","a","green","a","3","circle","112.74960000082501","112.74960000082501","2","psycho","cross","triangle","circle","star","1024","2","48000","-16","experiment","1","odd","30884.41000000239","140478.15170000104","139701.31540000148","16270.902500000375","NA","140600.85299999992","30884.265400000004","16274.750700002187","140478.51029999947","141101.17770000215","140468.1942999996","140468.11250000246","140467.89809999973","141101.11770000003","Wisconsin Card Sorting Test","17","61492.08370001725","64","1024"
