PERSISTENT,TEMPORARY,acc,accuracy,average_response_time,avg_rt,background,browser_codename,browser_name,browser_version,canvas_backend,clock_backend,closed,color1,color2,color3,color4,color_backend,correct,correct_in_a_row,correct_press_abcd,correct_response,count_block_loop,count_card_display,count_correct_feedback,count_experiment,count_goodbye,count_incorrect_feedback,count_init_matching_rule,count_instructions,count_logger,count_new_1_form_text_display,count_new_2_sketchpad,count_new_form_consent,count_new_form_text_display,count_new_inline_javascript,count_new_sketchpad,count_osweb,count_press_abcd,count_select_response_card,count_set_correct_response,count_trial_sequence,count_update_matching_rule,credentialless,crossOriginIsolated,date_startdate,date_startdateUTC,date_starttime,datetime,description,devicePixelRatio,disable_garbage_collection,experiment_debug,experiment_parameters,experiment_path,experiment_pilot,experiment_taskname,experiment_taskversion,font_bold,font_family,font_italic,font_size,font_underline,foreground,form_clicks,fullscreen,height,innerHeight,innerWidth,isBrowser,isSecureContext,jatosStudyResultId,jatosVersion,jatos_uuid,keyboard_backend,length,matching_rule,mouse_backend,name,number1,number2,number3,number4,opensesame_codename,opensesame_version,origin,originAgentCluster,outerHeight,outerWidth,overlap1,overlap2,overlap3,overlap4,pageXOffset,pageYOffset,penwidth,repeat_cycle,response,response_color,response_new_2_sketchpad,response_new_sketchpad,response_number,response_press_abcd,response_shape,response_time,response_time_new_2_sketchpad,response_time_new_sketchpad,response_time_press_abcd,round_decimals,sampler_backend,screenLeft,screenTop,screenX,screenY,screen_availableHeight,screen_availableWidth,screen_colorDepth,screen_height,screen_pixelDepth,screen_screenX,screen_screenY,screen_width,scrollX,scrollY,sessionid,shape1,shape2,shape3,shape4,sound_buf_size,sound_channels,sound_freq,sound_sample_size,start,status,subject_nr,subject_parity,system_os,time_block_loop,time_card_display,time_correct_feedback,time_incorrect_feedback,time_init_matching_rule,time_logger,time_new_2_sketchpad,time_new_sketchpad,time_press_abcd,time_select_response_card,time_set_correct_response,time_update_matching_rule,title,total_correct,total_response_time,total_responses,width
1,0,0,0,5140,5140,#3d3846,Mozilla,Netscape,"5.0 (Windows NT 10.0; Win64; x64) AppleWebKit/537.36 (KHTML, like Gecko) Chrome/125.0.0.0 Safari/537.36",osweb,osweb,0,green,blue,red,yellow,osweb,0,0,0,c,0,0,0,0,0,0,0,0,0,0,0,0,0,0,0,0,0,0,0,0,0,0,0,29-05-24,29-05-24,13:29:56,Wed May 29 2024 13:29:56 GMT+0100 (British Summer Time),The main experiment item,1,False,0,0,C:\Users\maalt\OneDrive - Universität Wien\Dokumente\Uni\Psychologie\8. Semester\Bachelorarbeit\Experimente\Winsconsin\osweb-version,0,0,0,False,mono,False,18,no,white,no,no,768,1080,1920,1,1,527062,3.8.6,47c87f94-a82d-0636-b77f-40fb00d57fe0,osweb,0,shape,osweb,,4,1,3,2,osweb,2.1.0,https://jatos.mindprobe.eu,1,1080,1920,0,1,1,1,0,0,1,0,b,yellow,a,space,1,b,circle,5140,26356,15470,5140,2,osweb,1920,0,1920,0,1040,1920,24,1080,24,2255,31,1920,0,0,1716985792468,cross,triangle,circle,star,1024,2,48000,-16,experiment,,0,even,Win32,35,69415,,74558,69397,75073,24630,50990,69415,69412,69412,75073,Wisconsin Card Sorting Test,0,5140,1,1024
1,0,0,0,6532,6532,#3d3846,Mozilla,Netscape,"5.0 (Windows NT 10.0; Win64; x64) AppleWebKit/537.36 (KHTML, like Gecko) Chrome/125.0.0.0 Safari/537.36",osweb,osweb,0,blue,green,red,yellow,osweb,0,0,0,a,0,1,1,0,0,1,0,0,1,0,0,0,0,0,0,0,1,1,1,1,1,0,0,29-05-24,29-05-24,13:29:56,Wed May 29 2024 13:29:56 GMT+0100 (British Summer Time),The main experiment item,1,False,0,0,C:\Users\maalt\OneDrive - Universität Wien\Dokumente\Uni\Psychologie\8. Semester\Bachelorarbeit\Experimente\Winsconsin\osweb-version,0,0,0,False,mono,False,18,no,white,no,no,768,1080,1920,1,1,527062,3.8.6,47c87f94-a82d-0636-b77f-40fb00d57fe0,osweb,0,shape,osweb,,2,3,1,4,osweb,2.1.0,https://jatos.mindprobe.eu,1,1080,1920,1,1,1,0,0,0,1,0,b,red,a,space,3,b,triangle,7924,26356,15470,7924,2,osweb,1920,0,1920,0,1040,1920,24,1080,24,2255,31,1920,0,0,1716985792468,triangle,circle,star,cross,1024,2,48000,-16,experiment,,0,even,Win32,35,75088,,83026,69397,83540,24630,50990,75089,75085,75085,83540,Wisconsin Card Sorting Test,0,13064,2,1024
1,0,0,0,5567,5567,#3d3846,Mozilla,Netscape,"5.0 (Windows NT 10.0; Win64; x64) AppleWebKit/537.36 (KHTML, like Gecko) Chrome/125.0.0.0 Safari/537.36",osweb,osweb,0,red,blue,yellow,green,osweb,0,0,0,d,0,2,2,0,0,2,0,0,2,0,0,0,0,0,0,0,2,2,2,2,2,0,0,29-05-24,29-05-24,13:29:56,Wed May 29 2024 13:29:56 GMT+0100 (British Summer Time),The main experiment item,1,False,0,0,C:\Users\maalt\OneDrive - Universität Wien\Dokumente\Uni\Psychologie\8. Semester\Bachelorarbeit\Experimente\Winsconsin\osweb-version,0,0,0,False,mono,False,18,no,white,no,no,768,1080,1920,1,1,527062,3.8.6,47c87f94-a82d-0636-b77f-40fb00d57fe0,osweb,0,shape,osweb,,3,4,2,1,osweb,2.1.0,https://jatos.mindprobe.eu,1,1080,1920,1,1,0,1,0,0,1,0,b,blue,a,space,3,b,cross,3636,26356,15470,3636,2,osweb,1920,0,1920,0,1040,1920,24,1080,24,2255,31,1920,0,0,1716985792468,star,triangle,circle,cross,1024,2,48000,-16,experiment,,0,even,Win32,35,83552,,87192,69397,87708,24630,50990,83552,83549,83549,87708,Wisconsin Card Sorting Test,0,16700,3,1024
1,0,0,0,5246,5246,#3d3846,Mozilla,Netscape,"5.0 (Windows NT 10.0; Win64; x64) AppleWebKit/537.36 (KHTML, like Gecko) Chrome/125.0.0.0 Safari/537.36",osweb,osweb,0,red,yellow,green,blue,osweb,0,0,0,c,0,3,3,0,0,3,0,0,3,0,0,0,0,0,0,0,3,3,3,3,3,0,0,29-05-24,29-05-24,13:29:56,Wed May 29 2024 13:29:56 GMT+0100 (British Summer Time),The main experiment item,1,False,0,0,C:\Users\maalt\OneDrive - Universität Wien\Dokumente\Uni\Psychologie\8. Semester\Bachelorarbeit\Experimente\Winsconsin\osweb-version,0,0,0,False,mono,False,18,no,white,no,no,768,1080,1920,1,1,527062,3.8.6,47c87f94-a82d-0636-b77f-40fb00d57fe0,osweb,0,shape,osweb,,4,2,1,3,osweb,2.1.0,https://jatos.mindprobe.eu,1,1080,1920,0,1,1,1,0,0,1,0,d,yellow,a,space,3,d,circle,4282,26356,15470,4282,2,osweb,1920,0,1920,0,1040,1920,24,1080,24,2255,31,1920,0,0,1716985792468,star,cross,circle,triangle,1024,2,48000,-16,experiment,,0,even,Win32,35,87721,,92007,69397,92524,24630,50990,87721,87718,87718,92524,Wisconsin Card Sorting Test,0,20982,4,1024
1,0,0,0,7822,7822,#3d3846,Mozilla,Netscape,"5.0 (Windows NT 10.0; Win64; x64) AppleWebKit/537.36 (KHTML, like Gecko) Chrome/125.0.0.0 Safari/537.36",osweb,osweb,0,blue,yellow,green,red,osweb,0,0,0,b,0,4,4,0,0,4,0,0,4,0,0,0,0,0,0,0,4,4,4,4,4,0,0,29-05-24,29-05-24,13:29:56,Wed May 29 2024 13:29:56 GMT+0100 (British Summer Time),The main experiment item,1,False,0,0,C:\Users\maalt\OneDrive - Universität Wien\Dokumente\Uni\Psychologie\8. Semester\Bachelorarbeit\Experimente\Winsconsin\osweb-version,0,0,0,False,mono,False,18,no,white,no,no,768,1080,1920,1,1,527062,3.8.6,47c87f94-a82d-0636-b77f-40fb00d57fe0,osweb,0,shape,osweb,,1,4,2,3,osweb,2.1.0,https://jatos.mindprobe.eu,1,1080,1920,0,1,1,1,0,0,1,0,d,red,a,space,2,d,star,18126,26356,15470,18126,2,osweb,1920,0,1920,0,1040,1920,24,1080,24,2255,31,1920,0,0,1716985792468,cross,star,circle,triangle,1024,2,48000,-16,experiment,,0,even,Win32,35,92535,,110677,69397,111192,24630,50990,92535,92532,92532,111192,Wisconsin Card Sorting Test,0,39108,5,1024
1,0,0,0,7320,7320,#3d3846,Mozilla,Netscape,"5.0 (Windows NT 10.0; Win64; x64) AppleWebKit/537.36 (KHTML, like Gecko) Chrome/125.0.0.0 Safari/537.36",osweb,osweb,0,red,blue,yellow,green,osweb,0,0,0,d,0,5,5,0,0,5,0,0,5,0,0,0,0,0,0,0,5,5,5,5,5,0,0,29-05-24,29-05-24,13:29:56,Wed May 29 2024 13:29:56 GMT+0100 (British Summer Time),The main experiment item,1,False,0,0,C:\Users\maalt\OneDrive - Universität Wien\Dokumente\Uni\Psychologie\8. Semester\Bachelorarbeit\Experimente\Winsconsin\osweb-version,0,0,0,False,mono,False,18,no,white,no,no,768,1080,1920,1,1,527062,3.8.6,47c87f94-a82d-0636-b77f-40fb00d57fe0,osweb,0,shape,osweb,,4,1,3,2,osweb,2.1.0,https://jatos.mindprobe.eu,1,1080,1920,1,0,1,1,0,0,1,0,a,yellow,a,space,4,a,triangle,4809,26356,15470,4809,2,osweb,1920,0,1920,0,1040,1920,24,1080,24,2255,31,1920,0,0,1716985792468,star,cross,circle,triangle,1024,2,48000,-16,experiment,,0,even,Win32,35,111212,,116027,69397,116543,24630,50990,111212,111208,111208,116542,Wisconsin Card Sorting Test,0,43917,6,1024
1,0,14,14,6948,6948,#3d3846,Mozilla,Netscape,"5.0 (Windows NT 10.0; Win64; x64) AppleWebKit/537.36 (KHTML, like Gecko) Chrome/125.0.0.0 Safari/537.36",osweb,osweb,0,blue,yellow,red,green,osweb,1,1,1,d,0,6,6,0,0,6,0,0,6,0,0,0,0,0,0,0,6,6,6,6,6,0,0,29-05-24,29-05-24,13:29:56,Wed May 29 2024 13:29:56 GMT+0100 (British Summer Time),The main experiment item,1,False,0,0,C:\Users\maalt\OneDrive - Universität Wien\Dokumente\Uni\Psychologie\8. Semester\Bachelorarbeit\Experimente\Winsconsin\osweb-version,0,0,0,False,mono,False,18,no,white,no,no,768,1080,1920,1,1,527062,3.8.6,47c87f94-a82d-0636-b77f-40fb00d57fe0,osweb,0,shape,osweb,,4,3,2,1,osweb,2.1.0,https://jatos.mindprobe.eu,1,1080,1920,1,0,1,1,0,0,1,0,d,blue,a,space,2,d,cross,4716,26356,15470,4716,2,osweb,1920,0,1920,0,1040,1920,24,1080,24,2255,31,1920,0,0,1716985792468,star,circle,triangle,cross,1024,2,48000,-16,experiment,,0,even,Win32,35,116568,121293,116027,69397,121810,24630,50990,116568,116565,116565,121809,Wisconsin Card Sorting Test,1,48633,7,1024
1,0,25,25,6667,6667,#3d3846,Mozilla,Netscape,"5.0 (Windows NT 10.0; Win64; x64) AppleWebKit/537.36 (KHTML, like Gecko) Chrome/125.0.0.0 Safari/537.36",osweb,osweb,0,green,red,blue,yellow,osweb,1,2,1,a,0,7,7,0,0,7,0,0,7,0,0,0,0,0,0,0,7,7,7,7,7,0,0,29-05-24,29-05-24,13:29:56,Wed May 29 2024 13:29:56 GMT+0100 (British Summer Time),The main experiment item,1,False,0,0,C:\Users\maalt\OneDrive - Universität Wien\Dokumente\Uni\Psychologie\8. Semester\Bachelorarbeit\Experimente\Winsconsin\osweb-version,0,0,0,False,mono,False,18,no,white,no,no,768,1080,1920,1,1,527062,3.8.6,47c87f94-a82d-0636-b77f-40fb00d57fe0,osweb,0,shape,osweb,,2,1,4,3,osweb,2.1.0,https://jatos.mindprobe.eu,1,1080,1920,1,0,1,1,0,0,1,0,a,blue,a,space,3,a,triangle,4702,26356,15470,4702,2,osweb,1920,0,1920,0,1040,1920,24,1080,24,2255,31,1920,0,0,1716985792468,triangle,cross,star,circle,1024,2,48000,-16,experiment,,0,even,Win32,35,121821,126526,116027,69397,127043,24630,50990,121821,121819,121819,127043,Wisconsin Card Sorting Test,2,53335,8,1024
1,0,33,33,6237,6237,#3d3846,Mozilla,Netscape,"5.0 (Windows NT 10.0; Win64; x64) AppleWebKit/537.36 (KHTML, like Gecko) Chrome/125.0.0.0 Safari/537.36",osweb,osweb,0,blue,yellow,red,green,osweb,1,3,1,c,0,8,8,0,0,8,0,0,8,0,0,0,0,0,0,0,8,8,8,8,8,0,0,29-05-24,29-05-24,13:29:56,Wed May 29 2024 13:29:56 GMT+0100 (British Summer Time),The main experiment item,1,False,0,0,C:\Users\maalt\OneDrive - Universität Wien\Dokumente\Uni\Psychologie\8. Semester\Bachelorarbeit\Experimente\Winsconsin\osweb-version,0,0,0,False,mono,False,18,no,white,no,no,768,1080,1920,1,1,527062,3.8.6,47c87f94-a82d-0636-b77f-40fb00d57fe0,osweb,0,shape,osweb,,2,3,1,4,osweb,2.1.0,https://jatos.mindprobe.eu,1,1080,1920,1,1,1,0,0,0,1,0,c,yellow,a,space,2,c,circle,2796,26356,15470,2796,2,osweb,1920,0,1920,0,1040,1920,24,1080,24,2255,31,1920,0,0,1716985792468,cross,star,circle,triangle,1024,2,48000,-16,experiment,,0,even,Win32,35,127056,129861,116027,69397,130377,24630,50990,127056,127053,127053,130377,Wisconsin Card Sorting Test,3,56131,9,1024
1,0,40,40,5850,5850,#3d3846,Mozilla,Netscape,"5.0 (Windows NT 10.0; Win64; x64) AppleWebKit/537.36 (KHTML, like Gecko) Chrome/125.0.0.0 Safari/537.36",osweb,osweb,0,blue,green,red,yellow,osweb,1,4,1,d,0,9,9,0,0,9,0,0,9,0,0,0,0,0,0,0,9,9,9,9,9,0,0,29-05-24,29-05-24,13:29:56,Wed May 29 2024 13:29:56 GMT+0100 (British Summer Time),The main experiment item,1,False,0,0,C:\Users\maalt\OneDrive - Universität Wien\Dokumente\Uni\Psychologie\8. Semester\Bachelorarbeit\Experimente\Winsconsin\osweb-version,0,0,0,False,mono,False,18,no,white,no,no,768,1080,1920,1,1,527062,3.8.6,47c87f94-a82d-0636-b77f-40fb00d57fe0,osweb,0,shape,osweb,,1,2,3,4,osweb,2.1.0,https://jatos.mindprobe.eu,1,1080,1920,1,0,1,1,0,0,1,0,d,red,a,space,1,d,star,2367,26356,15470,2367,2,osweb,1920,0,1920,0,1040,1920,24,1080,24,2255,31,1920,0,0,1716985792468,cross,triangle,circle,star,1024,2,48000,-16,experiment,,0,even,Win32,35,130389,132761,116027,69397,133276,24630,50990,130390,130387,130387,133276,Wisconsin Card Sorting Test,4,58498,10,1024
1,0,45,45,5522,5522,#3d3846,Mozilla,Netscape,"5.0 (Windows NT 10.0; Win64; x64) AppleWebKit/537.36 (KHTML, like Gecko) Chrome/125.0.0.0 Safari/537.36",osweb,osweb,0,red,yellow,blue,green,osweb,1,0,1,c,0,10,10,0,0,10,0,0,10,0,0,0,0,0,0,0,10,10,10,10,10,0,0,29-05-24,29-05-24,13:29:56,Wed May 29 2024 13:29:56 GMT+0100 (British Summer Time),The main experiment item,1,False,0,0,C:\Users\maalt\OneDrive - Universität Wien\Dokumente\Uni\Psychologie\8. Semester\Bachelorarbeit\Experimente\Winsconsin\osweb-version,0,0,0,False,mono,False,18,no,white,no,no,768,1080,1920,1,1,527062,3.8.6,47c87f94-a82d-0636-b77f-40fb00d57fe0,osweb,0,color,osweb,,2,3,1,4,osweb,2.1.0,https://jatos.mindprobe.eu,1,1080,1920,1,1,1,0,0,0,1,0,c,red,a,space,3,c,cross,2239,26356,15470,2239,2,osweb,1920,0,1920,0,1040,1920,24,1080,24,2255,31,1920,0,0,1716985792468,circle,star,cross,triangle,1024,2,48000,-16,experiment,,0,even,Win32,35,133285,135528,116027,69397,136043,24630,50990,133285,133283,133283,136043,Wisconsin Card Sorting Test,5,60737,11,1024
1,0,42,42,5262,5262,#3d3846,Mozilla,Netscape,"5.0 (Windows NT 10.0; Win64; x64) AppleWebKit/537.36 (KHTML, like Gecko) Chrome/125.0.0.0 Safari/537.36",osweb,osweb,0,green,blue,red,yellow,osweb,0,0,0,d,0,11,11,0,0,11,0,0,11,0,0,0,0,0,0,0,11,11,11,11,11,0,0,29-05-24,29-05-24,13:29:56,Wed May 29 2024 13:29:56 GMT+0100 (British Summer Time),The main experiment item,1,False,0,0,C:\Users\maalt\OneDrive - Universität Wien\Dokumente\Uni\Psychologie\8. Semester\Bachelorarbeit\Experimente\Winsconsin\osweb-version,0,0,0,False,mono,False,18,no,white,no,no,768,1080,1920,1,1,527062,3.8.6,47c87f94-a82d-0636-b77f-40fb00d57fe0,osweb,0,color,osweb,,3,1,2,4,osweb,2.1.0,https://jatos.mindprobe.eu,1,1080,1920,1,1,0,1,0,0,1,0,a,yellow,a,space,1,a,star,2412,26356,15470,2412,2,osweb,1920,0,1920,0,1040,1920,24,1080,24,2255,31,1920,0,0,1716985792468,star,cross,triangle,circle,1024,2,48000,-16,experiment,,0,even,Win32,35,136056,135528,138478,69397,138993,24630,50990,136056,136053,136053,138993,Wisconsin Card Sorting Test,5,63149,12,1024
1,0,38,38,5606,5606,#3d3846,Mozilla,Netscape,"5.0 (Windows NT 10.0; Win64; x64) AppleWebKit/537.36 (KHTML, like Gecko) Chrome/125.0.0.0 Safari/537.36",osweb,osweb,0,yellow,green,red,blue,osweb,0,0,0,a,0,12,12,0,0,12,0,0,12,0,0,0,0,0,0,0,12,12,12,12,12,0,0,29-05-24,29-05-24,13:29:56,Wed May 29 2024 13:29:56 GMT+0100 (British Summer Time),The main experiment item,1,False,0,0,C:\Users\maalt\OneDrive - Universität Wien\Dokumente\Uni\Psychologie\8. Semester\Bachelorarbeit\Experimente\Winsconsin\osweb-version,0,0,0,False,mono,False,18,no,white,no,no,768,1080,1920,1,1,527062,3.8.6,47c87f94-a82d-0636-b77f-40fb00d57fe0,osweb,0,color,osweb,,3,2,4,1,osweb,2.1.0,https://jatos.mindprobe.eu,1,1080,1920,1,1,1,0,0,0,1,0,b,yellow,a,space,4,b,star,9731,26356,15470,9731,2,osweb,1920,0,1920,0,1040,1920,24,1080,24,2255,31,1920,0,0,1716985792468,triangle,star,cross,circle,1024,2,48000,-16,experiment,,0,even,Win32,35,139002,135528,148744,69397,149260,24630,50990,139002,138999,138999,149260,Wisconsin Card Sorting Test,5,72880,13,1024
1,0,43,43,6174,6174,#3d3846,Mozilla,Netscape,"5.0 (Windows NT 10.0; Win64; x64) AppleWebKit/537.36 (KHTML, like Gecko) Chrome/125.0.0.0 Safari/537.36",osweb,osweb,0,green,yellow,red,blue,osweb,1,1,1,a,0,13,13,0,0,13,0,0,13,0,0,0,0,0,0,0,13,13,13,13,13,0,0,29-05-24,29-05-24,13:29:56,Wed May 29 2024 13:29:56 GMT+0100 (British Summer Time),The main experiment item,1,False,0,0,C:\Users\maalt\OneDrive - Universität Wien\Dokumente\Uni\Psychologie\8. Semester\Bachelorarbeit\Experimente\Winsconsin\osweb-version,0,0,0,False,mono,False,18,no,white,no,no,768,1080,1920,1,1,527062,3.8.6,47c87f94-a82d-0636-b77f-40fb00d57fe0,osweb,0,color,osweb,,3,4,2,1,osweb,2.1.0,https://jatos.mindprobe.eu,1,1080,1920,1,1,0,1,0,0,1,0,a,green,a,space,1,a,triangle,13558,26356,15470,13558,2,osweb,1920,0,1920,0,1040,1920,24,1080,24,2255,31,1920,0,0,1716985792468,cross,triangle,circle,star,1024,2,48000,-16,experiment,,0,even,Win32,35,149271,162846,148744,69397,163362,24630,50990,149271,149268,149268,163362,Wisconsin Card Sorting Test,6,86438,14,1024
1,0,47,47,6028,6028,#3d3846,Mozilla,Netscape,"5.0 (Windows NT 10.0; Win64; x64) AppleWebKit/537.36 (KHTML, like Gecko) Chrome/125.0.0.0 Safari/537.36",osweb,osweb,0,yellow,red,green,blue,osweb,1,2,1,a,0,14,14,0,0,14,0,0,14,0,0,0,0,0,0,0,14,14,14,14,14,0,0,29-05-24,29-05-24,13:29:56,Wed May 29 2024 13:29:56 GMT+0100 (British Summer Time),The main experiment item,1,False,0,0,C:\Users\maalt\OneDrive - Universität Wien\Dokumente\Uni\Psychologie\8. Semester\Bachelorarbeit\Experimente\Winsconsin\osweb-version,0,0,0,False,mono,False,18,no,white,no,no,768,1080,1920,1,1,527062,3.8.6,47c87f94-a82d-0636-b77f-40fb00d57fe0,osweb,0,color,osweb,,4,2,3,1,osweb,2.1.0,https://jatos.mindprobe.eu,1,1080,1920,1,1,0,1,0,0,1,0,a,yellow,a,space,2,a,cross,3980,26356,15470,3980,2,osweb,1920,0,1920,0,1040,1920,24,1080,24,2255,31,1920,0,0,1716985792468,circle,star,triangle,cross,1024,2,48000,-16,experiment,,0,even,Win32,35,163375,167362,148744,69397,167879,24630,50990,163375,163372,163372,167879,Wisconsin Card Sorting Test,7,90418,15,1024
1,0,50,50,5822,5822,#3d3846,Mozilla,Netscape,"5.0 (Windows NT 10.0; Win64; x64) AppleWebKit/537.36 (KHTML, like Gecko) Chrome/125.0.0.0 Safari/537.36",osweb,osweb,0,green,blue,red,yellow,osweb,1,3,1,c,0,15,15,0,0,15,0,0,15,0,0,0,0,0,0,0,15,15,15,15,15,0,0,29-05-24,29-05-24,13:29:56,Wed May 29 2024 13:29:56 GMT+0100 (British Summer Time),The main experiment item,1,False,0,0,C:\Users\maalt\OneDrive - Universität Wien\Dokumente\Uni\Psychologie\8. Semester\Bachelorarbeit\Experimente\Winsconsin\osweb-version,0,0,0,False,mono,False,18,no,white,no,no,768,1080,1920,1,1,527062,3.8.6,47c87f94-a82d-0636-b77f-40fb00d57fe0,osweb,0,color,osweb,,2,1,3,4,osweb,2.1.0,https://jatos.mindprobe.eu,1,1080,1920,1,0,1,1,0,0,1,0,c,red,a,space,2,c,star,2731,26356,15470,2731,2,osweb,1920,0,1920,0,1040,1920,24,1080,24,2255,31,1920,0,0,1716985792468,circle,cross,triangle,star,1024,2,48000,-16,experiment,,0,even,Win32,35,167888,170629,148744,69397,171146,24630,50990,167888,167886,167886,171145,Wisconsin Card Sorting Test,8,93149,16,1024
1,0,53,53,5586,5586,#3d3846,Mozilla,Netscape,"5.0 (Windows NT 10.0; Win64; x64) AppleWebKit/537.36 (KHTML, like Gecko) Chrome/125.0.0.0 Safari/537.36",osweb,osweb,0,red,green,blue,yellow,osweb,1,4,1,a,0,16,16,0,0,16,0,0,16,0,0,0,0,0,0,0,16,16,16,16,16,0,0,29-05-24,29-05-24,13:29:56,Wed May 29 2024 13:29:56 GMT+0100 (British Summer Time),The main experiment item,1,False,0,0,C:\Users\maalt\OneDrive - Universität Wien\Dokumente\Uni\Psychologie\8. Semester\Bachelorarbeit\Experimente\Winsconsin\osweb-version,0,0,0,False,mono,False,18,no,white,no,no,768,1080,1920,1,1,527062,3.8.6,47c87f94-a82d-0636-b77f-40fb00d57fe0,osweb,0,color,osweb,,4,3,1,2,osweb,2.1.0,https://jatos.mindprobe.eu,1,1080,1920,1,0,1,1,0,0,1,0,a,red,a,space,2,a,circle,1809,26356,15470,1809,2,osweb,1920,0,1920,0,1040,1920,24,1080,24,2255,31,1920,0,0,1716985792468,triangle,star,circle,cross,1024,2,48000,-16,experiment,,0,even,Win32,35,171156,172980,148744,69397,173496,24630,50990,171156,171155,171155,173496,Wisconsin Card Sorting Test,9,94958,17,1024
1,0,56,56,5396,5396,#3d3846,Mozilla,Netscape,"5.0 (Windows NT 10.0; Win64; x64) AppleWebKit/537.36 (KHTML, like Gecko) Chrome/125.0.0.0 Safari/537.36",osweb,osweb,0,yellow,red,blue,green,osweb,1,0,1,b,0,17,17,0,0,17,0,0,17,0,0,0,0,0,0,0,17,17,17,17,17,0,0,29-05-24,29-05-24,13:29:56,Wed May 29 2024 13:29:56 GMT+0100 (British Summer Time),The main experiment item,1,False,0,0,C:\Users\maalt\OneDrive - Universität Wien\Dokumente\Uni\Psychologie\8. Semester\Bachelorarbeit\Experimente\Winsconsin\osweb-version,0,0,0,False,mono,False,18,no,white,no,no,768,1080,1920,1,1,527062,3.8.6,47c87f94-a82d-0636-b77f-40fb00d57fe0,osweb,0,shape,osweb,,2,1,3,4,osweb,2.1.0,https://jatos.mindprobe.eu,1,1080,1920,1,1,0,1,0,0,1,0,b,red,a,space,4,b,star,2170,26356,15470,2170,2,osweb,1920,0,1920,0,1040,1920,24,1080,24,2255,31,1920,0,0,1716985792468,star,circle,triangle,cross,1024,2,48000,-16,experiment,,0,even,Win32,35,173521,175695,148744,69397,176212,24630,50990,173521,173517,173517,176212,Wisconsin Card Sorting Test,10,97128,18,1024
1,0,53,53,5193,5193,#3d3846,Mozilla,Netscape,"5.0 (Windows NT 10.0; Win64; x64) AppleWebKit/537.36 (KHTML, like Gecko) Chrome/125.0.0.0 Safari/537.36",osweb,osweb,0,red,blue,yellow,green,osweb,0,0,0,c,0,18,18,0,0,18,0,0,18,0,0,0,0,0,0,0,18,18,18,18,18,0,0,29-05-24,29-05-24,13:29:56,Wed May 29 2024 13:29:56 GMT+0100 (British Summer Time),The main experiment item,1,False,0,0,C:\Users\maalt\OneDrive - Universität Wien\Dokumente\Uni\Psychologie\8. Semester\Bachelorarbeit\Experimente\Winsconsin\osweb-version,0,0,0,False,mono,False,18,no,white,no,no,768,1080,1920,1,1,527062,3.8.6,47c87f94-a82d-0636-b77f-40fb00d57fe0,osweb,0,shape,osweb,,4,3,2,1,osweb,2.1.0,https://jatos.mindprobe.eu,1,1080,1920,0,1,1,1,0,0,1,0,b,blue,a,space,1,b,circle,1544,26356,15470,1544,2,osweb,1920,0,1920,0,1040,1920,24,1080,24,2255,31,1920,0,0,1716985792468,star,cross,circle,triangle,1024,2,48000,-16,experiment,,0,even,Win32,35,176220,175695,177780,69397,178296,24630,50990,176220,176218,176218,178295,Wisconsin Card Sorting Test,10,98672,19,1024
1,0,50,50,5070,5070,#3d3846,Mozilla,Netscape,"5.0 (Windows NT 10.0; Win64; x64) AppleWebKit/537.36 (KHTML, like Gecko) Chrome/125.0.0.0 Safari/537.36",osweb,osweb,0,blue,yellow,green,red,osweb,0,0,0,d,0,19,19,0,0,19,0,0,19,0,0,0,0,0,0,0,19,19,19,19,19,0,0,29-05-24,29-05-24,13:29:56,Wed May 29 2024 13:29:56 GMT+0100 (British Summer Time),The main experiment item,1,False,0,0,C:\Users\maalt\OneDrive - Universität Wien\Dokumente\Uni\Psychologie\8. Semester\Bachelorarbeit\Experimente\Winsconsin\osweb-version,0,0,0,False,mono,False,18,no,white,no,no,768,1080,1920,1,1,527062,3.8.6,47c87f94-a82d-0636-b77f-40fb00d57fe0,osweb,0,shape,osweb,,2,4,1,3,osweb,2.1.0,https://jatos.mindprobe.eu,1,1080,1920,0,1,1,1,0,0,1,0,c,green,a,space,4,c,circle,2731,26356,15470,2731,2,osweb,1920,0,1920,0,1040,1920,24,1080,24,2255,31,1920,0,0,1716985792468,triangle,star,cross,circle,1024,2,48000,-16,experiment,,0,even,Win32,35,178304,175695,181046,69397,181563,24630,50990,178304,178301,178301,181563,Wisconsin Card Sorting Test,10,101403,20,1024
1,0,52,52,5059,5059,#3d3846,Mozilla,Netscape,"5.0 (Windows NT 10.0; Win64; x64) AppleWebKit/537.36 (KHTML, like Gecko) Chrome/125.0.0.0 Safari/537.36",osweb,osweb,0,yellow,blue,green,red,osweb,1,1,1,c,0,20,20,0,0,20,0,0,20,0,0,0,0,0,0,0,20,20,20,20,20,0,0,29-05-24,29-05-24,13:29:56,Wed May 29 2024 13:29:56 GMT+0100 (British Summer Time),The main experiment item,1,False,0,0,C:\Users\maalt\OneDrive - Universität Wien\Dokumente\Uni\Psychologie\8. Semester\Bachelorarbeit\Experimente\Winsconsin\osweb-version,0,0,0,False,mono,False,18,no,white,no,no,768,1080,1920,1,1,527062,3.8.6,47c87f94-a82d-0636-b77f-40fb00d57fe0,osweb,0,shape,osweb,,1,4,2,3,osweb,2.1.0,https://jatos.mindprobe.eu,1,1080,1920,0,1,1,1,0,0,1,0,c,blue,a,space,3,c,circle,4830,26356,15470,4830,2,osweb,1920,0,1920,0,1040,1920,24,1080,24,2255,31,1920,0,0,1716985792468,star,triangle,circle,cross,1024,2,48000,-16,experiment,,0,even,Win32,35,181575,186414,181046,69397,186930,24630,50990,181575,181573,181573,186930,Wisconsin Card Sorting Test,11,106233,21,1024
1,0,55,55,4967,4967,#3d3846,Mozilla,Netscape,"5.0 (Windows NT 10.0; Win64; x64) AppleWebKit/537.36 (KHTML, like Gecko) Chrome/125.0.0.0 Safari/537.36",osweb,osweb,0,green,yellow,red,blue,osweb,1,2,1,b,0,21,21,0,0,21,0,0,21,0,0,0,0,0,0,0,21,21,21,21,21,0,0,29-05-24,29-05-24,13:29:56,Wed May 29 2024 13:29:56 GMT+0100 (British Summer Time),The main experiment item,1,False,0,0,C:\Users\maalt\OneDrive - Universität Wien\Dokumente\Uni\Psychologie\8. Semester\Bachelorarbeit\Experimente\Winsconsin\osweb-version,0,0,0,False,mono,False,18,no,white,no,no,768,1080,1920,1,1,527062,3.8.6,47c87f94-a82d-0636-b77f-40fb00d57fe0,osweb,0,shape,osweb,,2,1,4,3,osweb,2.1.0,https://jatos.mindprobe.eu,1,1080,1920,1,1,0,1,0,0,1,0,b,blue,a,space,2,b,triangle,3039,26356,15470,3039,2,osweb,1920,0,1920,0,1040,1920,24,1080,24,2255,31,1920,0,0,1716985792468,star,triangle,cross,circle,1024,2,48000,-16,experiment,,0,even,Win32,35,186941,189998,181046,69397,190514,24630,50990,186941,186940,186940,190513,Wisconsin Card Sorting Test,12,109272,22,1024
1,0,52,52,5004,5004,#3d3846,Mozilla,Netscape,"5.0 (Windows NT 10.0; Win64; x64) AppleWebKit/537.36 (KHTML, like Gecko) Chrome/125.0.0.0 Safari/537.36",osweb,osweb,0,blue,yellow,red,green,osweb,0,0,0,a,0,22,22,0,0,22,0,0,22,0,0,0,0,0,0,0,22,22,22,22,22,0,0,29-05-24,29-05-24,13:29:56,Wed May 29 2024 13:29:56 GMT+0100 (British Summer Time),The main experiment item,1,False,0,0,C:\Users\maalt\OneDrive - Universität Wien\Dokumente\Uni\Psychologie\8. Semester\Bachelorarbeit\Experimente\Winsconsin\osweb-version,0,0,0,False,mono,False,18,no,white,no,no,768,1080,1920,1,1,527062,3.8.6,47c87f94-a82d-0636-b77f-40fb00d57fe0,osweb,0,shape,osweb,,4,2,1,3,osweb,2.1.0,https://jatos.mindprobe.eu,1,1080,1920,1,1,1,0,0,0,1,0,b,yellow,a,space,1,b,cross,5820,26356,15470,5820,2,osweb,1920,0,1920,0,1040,1920,24,1080,24,2255,31,1920,0,0,1716985792468,cross,star,circle,triangle,1024,2,48000,-16,experiment,,0,even,Win32,35,190528,189998,196365,69397,196880,24630,50990,190528,190527,190527,196880,Wisconsin Card Sorting Test,12,115092,23,1024
1,0,50,50,5012,5012,#3d3846,Mozilla,Netscape,"5.0 (Windows NT 10.0; Win64; x64) AppleWebKit/537.36 (KHTML, like Gecko) Chrome/125.0.0.0 Safari/537.36",osweb,osweb,0,yellow,blue,red,green,osweb,0,0,0,a,0,23,23,0,0,23,0,0,23,0,0,0,0,0,0,0,23,23,23,23,23,0,0,29-05-24,29-05-24,13:29:56,Wed May 29 2024 13:29:56 GMT+0100 (British Summer Time),The main experiment item,1,False,0,0,C:\Users\maalt\OneDrive - Universität Wien\Dokumente\Uni\Psychologie\8. Semester\Bachelorarbeit\Experimente\Winsconsin\osweb-version,0,0,0,False,mono,False,18,no,white,no,no,768,1080,1920,1,1,527062,3.8.6,47c87f94-a82d-0636-b77f-40fb00d57fe0,osweb,0,shape,osweb,,3,2,4,1,osweb,2.1.0,https://jatos.mindprobe.eu,1,1080,1920,1,0,1,1,0,0,1,0,c,red,a,space,1,c,circle,5202,26356,15470,5202,2,osweb,1920,0,1920,0,1040,1920,24,1080,24,2255,31,1920,0,0,1716985792468,circle,cross,star,triangle,1024,2,48000,-16,experiment,,0,even,Win32,35,196890,189998,202097,69397,202614,24630,50990,196890,196888,196888,202614,Wisconsin Card Sorting Test,12,120294,24,1024
1,0,52,52,4922,4922,#3d3846,Mozilla,Netscape,"5.0 (Windows NT 10.0; Win64; x64) AppleWebKit/537.36 (KHTML, like Gecko) Chrome/125.0.0.0 Safari/537.36",osweb,osweb,0,green,blue,yellow,red,osweb,1,1,1,a,0,24,24,0,0,24,0,0,24,0,0,0,0,0,0,0,24,24,24,24,24,0,0,29-05-24,29-05-24,13:29:56,Wed May 29 2024 13:29:56 GMT+0100 (British Summer Time),The main experiment item,1,False,0,0,C:\Users\maalt\OneDrive - Universität Wien\Dokumente\Uni\Psychologie\8. Semester\Bachelorarbeit\Experimente\Winsconsin\osweb-version,0,0,0,False,mono,False,18,no,white,no,no,768,1080,1920,1,1,527062,3.8.6,47c87f94-a82d-0636-b77f-40fb00d57fe0,osweb,0,shape,osweb,,1,2,3,4,osweb,2.1.0,https://jatos.mindprobe.eu,1,1080,1920,1,1,0,1,0,0,1,0,a,blue,a,space,4,a,triangle,2748,26356,15470,2748,2,osweb,1920,0,1920,0,1040,1920,24,1080,24,2255,31,1920,0,0,1716985792468,triangle,star,circle,cross,1024,2,48000,-16,experiment,,0,even,Win32,35,202625,205381,202097,69397,205898,24630,50990,202625,202624,202624,205897,Wisconsin Card Sorting Test,13,123042,25,1024
1,0,50,50,4846,4846,#3d3846,Mozilla,Netscape,"5.0 (Windows NT 10.0; Win64; x64) AppleWebKit/537.36 (KHTML, like Gecko) Chrome/125.0.0.0 Safari/537.36",osweb,osweb,0,blue,yellow,red,green,osweb,0,0,0,b,0,25,25,0,0,25,0,0,25,0,0,0,0,0,0,0,25,25,25,25,25,0,0,29-05-24,29-05-24,13:29:56,Wed May 29 2024 13:29:56 GMT+0100 (British Summer Time),The main experiment item,1,False,0,0,C:\Users\maalt\OneDrive - Universität Wien\Dokumente\Uni\Psychologie\8. Semester\Bachelorarbeit\Experimente\Winsconsin\osweb-version,0,0,0,False,mono,False,18,no,white,no,no,768,1080,1920,1,1,527062,3.8.6,47c87f94-a82d-0636-b77f-40fb00d57fe0,osweb,0,shape,osweb,,3,2,1,4,osweb,2.1.0,https://jatos.mindprobe.eu,1,1080,1920,1,1,0,1,0,0,1,0,d,green,a,space,3,d,circle,2958,26356,15470,2958,2,osweb,1920,0,1920,0,1040,1920,24,1080,24,2255,31,1920,0,0,1716985792468,star,circle,triangle,cross,1024,2,48000,-16,experiment,,0,even,Win32,35,205911,205381,208882,69397,209398,24630,50990,205911,205909,205909,209398,Wisconsin Card Sorting Test,13,126000,26,1024
1,0,52,52,4765,4765,#3d3846,Mozilla,Netscape,"5.0 (Windows NT 10.0; Win64; x64) AppleWebKit/537.36 (KHTML, like Gecko) Chrome/125.0.0.0 Safari/537.36",osweb,osweb,0,yellow,blue,green,red,osweb,1,1,1,c,0,26,26,0,0,26,0,0,26,0,0,0,0,0,0,0,26,26,26,26,26,0,0,29-05-24,29-05-24,13:29:56,Wed May 29 2024 13:29:56 GMT+0100 (British Summer Time),The main experiment item,1,False,0,0,C:\Users\maalt\OneDrive - Universität Wien\Dokumente\Uni\Psychologie\8. Semester\Bachelorarbeit\Experimente\Winsconsin\osweb-version,0,0,0,False,mono,False,18,no,white,no,no,768,1080,1920,1,1,527062,3.8.6,47c87f94-a82d-0636-b77f-40fb00d57fe0,osweb,0,shape,osweb,,1,2,3,4,osweb,2.1.0,https://jatos.mindprobe.eu,1,1080,1920,1,0,1,1,0,0,1,0,c,red,a,space,1,c,circle,2643,26356,15470,2643,2,osweb,1920,0,1920,0,1040,1920,24,1080,24,2255,31,1920,0,0,1716985792468,star,triangle,circle,cross,1024,2,48000,-16,experiment,,0,even,Win32,35,209416,212064,208882,69397,212581,24630,50990,209416,209415,209415,212581,Wisconsin Card Sorting Test,14,128643,27,1024
1,0,54,54,4739,4739,#3d3846,Mozilla,Netscape,"5.0 (Windows NT 10.0; Win64; x64) AppleWebKit/537.36 (KHTML, like Gecko) Chrome/125.0.0.0 Safari/537.36",osweb,osweb,0,red,green,yellow,blue,osweb,1,2,1,d,0,27,27,0,0,27,0,0,27,0,0,0,0,0,0,0,27,27,27,27,27,0,0,29-05-24,29-05-24,13:29:56,Wed May 29 2024 13:29:56 GMT+0100 (British Summer Time),The main experiment item,1,False,0,0,C:\Users\maalt\OneDrive - Universität Wien\Dokumente\Uni\Psychologie\8. Semester\Bachelorarbeit\Experimente\Winsconsin\osweb-version,0,0,0,False,mono,False,18,no,white,no,no,768,1080,1920,1,1,527062,3.8.6,47c87f94-a82d-0636-b77f-40fb00d57fe0,osweb,0,shape,osweb,,2,3,1,4,osweb,2.1.0,https://jatos.mindprobe.eu,1,1080,1920,1,0,1,1,0,0,1,0,d,red,a,space,1,d,triangle,4043,26356,15470,4043,2,osweb,1920,0,1920,0,1040,1920,24,1080,24,2255,31,1920,0,0,1716985792468,circle,star,cross,triangle,1024,2,48000,-16,experiment,,0,even,Win32,35,212586,216632,208882,69397,217149,24630,50990,212586,212586,212586,217148,Wisconsin Card Sorting Test,15,132686,28,1024
1,0,55,55,4645,4645,#3d3846,Mozilla,Netscape,"5.0 (Windows NT 10.0; Win64; x64) AppleWebKit/537.36 (KHTML, like Gecko) Chrome/125.0.0.0 Safari/537.36",osweb,osweb,0,yellow,red,green,blue,osweb,1,3,1,d,0,28,28,0,0,28,0,0,28,0,0,0,0,0,0,0,28,28,28,28,28,0,0,29-05-24,29-05-24,13:29:56,Wed May 29 2024 13:29:56 GMT+0100 (British Summer Time),The main experiment item,1,False,0,0,C:\Users\maalt\OneDrive - Universität Wien\Dokumente\Uni\Psychologie\8. Semester\Bachelorarbeit\Experimente\Winsconsin\osweb-version,0,0,0,False,mono,False,18,no,white,no,no,768,1080,1920,1,1,527062,3.8.6,47c87f94-a82d-0636-b77f-40fb00d57fe0,osweb,0,shape,osweb,,2,1,4,3,osweb,2.1.0,https://jatos.mindprobe.eu,1,1080,1920,1,0,1,1,0,0,1,0,d,yellow,a,space,4,d,cross,2027,26356,15470,2027,2,osweb,1920,0,1920,0,1040,1920,24,1080,24,2255,31,1920,0,0,1716985792468,triangle,star,circle,cross,1024,2,48000,-16,experiment,,0,even,Win32,35,217162,219199,208882,69397,219715,24630,50990,217162,217159,217159,219715,Wisconsin Card Sorting Test,16,134713,29,1024
1,0,57,57,4572,4572,#3d3846,Mozilla,Netscape,"5.0 (Windows NT 10.0; Win64; x64) AppleWebKit/537.36 (KHTML, like Gecko) Chrome/125.0.0.0 Safari/537.36",osweb,osweb,0,green,blue,yellow,red,osweb,1,4,1,d,0,29,29,0,0,29,0,0,29,0,0,0,0,0,0,0,29,29,29,29,29,0,0,29-05-24,29-05-24,13:29:56,Wed May 29 2024 13:29:56 GMT+0100 (British Summer Time),The main experiment item,1,False,0,0,C:\Users\maalt\OneDrive - Universität Wien\Dokumente\Uni\Psychologie\8. Semester\Bachelorarbeit\Experimente\Winsconsin\osweb-version,0,0,0,False,mono,False,18,no,white,no,no,768,1080,1920,1,1,527062,3.8.6,47c87f94-a82d-0636-b77f-40fb00d57fe0,osweb,0,shape,osweb,,4,1,2,3,osweb,2.1.0,https://jatos.mindprobe.eu,1,1080,1920,0,1,1,1,0,0,1,0,d,blue,a,space,2,d,star,2457,26356,15470,2457,2,osweb,1920,0,1920,0,1040,1920,24,1080,24,2255,31,1920,0,0,1716985792468,triangle,circle,cross,star,1024,2,48000,-16,experiment,,0,even,Win32,35,219739,222199,208882,69397,222716,24630,50990,219739,219736,219736,222716,Wisconsin Card Sorting Test,17,137170,30,1024
1,0,58,58,4500,4500,#3d3846,Mozilla,Netscape,"5.0 (Windows NT 10.0; Win64; x64) AppleWebKit/537.36 (KHTML, like Gecko) Chrome/125.0.0.0 Safari/537.36",osweb,osweb,0,green,blue,red,yellow,osweb,1,0,1,a,0,30,30,0,0,30,0,0,30,0,0,0,0,0,0,0,30,30,30,30,30,0,0,29-05-24,29-05-24,13:29:56,Wed May 29 2024 13:29:56 GMT+0100 (British Summer Time),The main experiment item,1,False,0,0,C:\Users\maalt\OneDrive - Universität Wien\Dokumente\Uni\Psychologie\8. Semester\Bachelorarbeit\Experimente\Winsconsin\osweb-version,0,0,0,False,mono,False,18,no,white,no,no,768,1080,1920,1,1,527062,3.8.6,47c87f94-a82d-0636-b77f-40fb00d57fe0,osweb,0,color,osweb,,4,2,3,1,osweb,2.1.0,https://jatos.mindprobe.eu,1,1080,1920,1,1,0,1,0,0,1,0,a,yellow,a,space,2,a,star,2342,26356,15470,2342,2,osweb,1920,0,1920,0,1040,1920,24,1080,24,2255,31,1920,0,0,1716985792468,star,circle,triangle,cross,1024,2,48000,-16,experiment,,0,even,Win32,35,222724,225082,208882,69397,225599,24630,50990,222725,222722,222722,225599,Wisconsin Card Sorting Test,18,139512,31,1024
1,0,56,56,4447,4447,#3d3846,Mozilla,Netscape,"5.0 (Windows NT 10.0; Win64; x64) AppleWebKit/537.36 (KHTML, like Gecko) Chrome/125.0.0.0 Safari/537.36",osweb,osweb,0,blue,yellow,green,red,osweb,0,0,0,d,0,31,31,0,0,31,0,0,31,0,0,0,0,0,0,0,31,31,31,31,31,0,0,29-05-24,29-05-24,13:29:56,Wed May 29 2024 13:29:56 GMT+0100 (British Summer Time),The main experiment item,1,False,0,0,C:\Users\maalt\OneDrive - Universität Wien\Dokumente\Uni\Psychologie\8. Semester\Bachelorarbeit\Experimente\Winsconsin\osweb-version,0,0,0,False,mono,False,18,no,white,no,no,768,1080,1920,1,1,527062,3.8.6,47c87f94-a82d-0636-b77f-40fb00d57fe0,osweb,0,color,osweb,,3,2,4,1,osweb,2.1.0,https://jatos.mindprobe.eu,1,1080,1920,0,1,1,1,0,0,1,0,c,red,a,space,2,c,triangle,2800,26356,15470,2800,2,osweb,1920,0,1920,0,1040,1920,24,1080,24,2255,31,1920,0,0,1716985792468,star,circle,triangle,cross,1024,2,48000,-16,experiment,,0,even,Win32,35,225620,225082,228433,69397,228949,24630,50990,225621,225619,225619,228949,Wisconsin Card Sorting Test,18,142312,32,1024
1,0,55,55,4385,4385,#3d3846,Mozilla,Netscape,"5.0 (Windows NT 10.0; Win64; x64) AppleWebKit/537.36 (KHTML, like Gecko) Chrome/125.0.0.0 Safari/537.36",osweb,osweb,0,green,red,blue,yellow,osweb,0,0,0,a,0,32,32,0,0,32,0,0,32,0,0,0,0,0,0,0,32,32,32,32,32,0,0,29-05-24,29-05-24,13:29:56,Wed May 29 2024 13:29:56 GMT+0100 (British Summer Time),The main experiment item,1,False,0,0,C:\Users\maalt\OneDrive - Universität Wien\Dokumente\Uni\Psychologie\8. Semester\Bachelorarbeit\Experimente\Winsconsin\osweb-version,0,0,0,False,mono,False,18,no,white,no,no,768,1080,1920,1,1,527062,3.8.6,47c87f94-a82d-0636-b77f-40fb00d57fe0,osweb,0,color,osweb,,3,4,1,2,osweb,2.1.0,https://jatos.mindprobe.eu,1,1080,1920,1,0,1,1,0,0,1,0,d,green,a,space,1,d,cross,2405,26356,15470,2405,2,osweb,1920,0,1920,0,1040,1920,24,1080,24,2255,31,1920,0,0,1716985792468,circle,triangle,star,cross,1024,2,48000,-16,experiment,,0,even,Win32,35,228960,225082,231367,69397,231882,24630,50990,228960,228958,228958,231882,Wisconsin Card Sorting Test,18,144717,33,1024
1,0,56,56,4310,4310,#3d3846,Mozilla,Netscape,"5.0 (Windows NT 10.0; Win64; x64) AppleWebKit/537.36 (KHTML, like Gecko) Chrome/125.0.0.0 Safari/537.36",osweb,osweb,0,red,yellow,blue,green,osweb,1,1,1,a,0,33,33,0,0,33,0,0,33,0,0,0,0,0,0,0,33,33,33,33,33,0,0,29-05-24,29-05-24,13:29:56,Wed May 29 2024 13:29:56 GMT+0100 (British Summer Time),The main experiment item,1,False,0,0,C:\Users\maalt\OneDrive - Universität Wien\Dokumente\Uni\Psychologie\8. Semester\Bachelorarbeit\Experimente\Winsconsin\osweb-version,0,0,0,False,mono,False,18,no,white,no,no,768,1080,1920,1,1,527062,3.8.6,47c87f94-a82d-0636-b77f-40fb00d57fe0,osweb,0,color,osweb,,1,2,4,3,osweb,2.1.0,https://jatos.mindprobe.eu,1,1080,1920,1,0,1,1,0,0,1,0,a,red,a,space,4,a,cross,1811,26356,15470,1811,2,osweb,1920,0,1920,0,1040,1920,24,1080,24,2255,31,1920,0,0,1716985792468,star,circle,triangle,cross,1024,2,48000,-16,experiment,,0,even,Win32,35,231889,233717,231367,69397,234232,24630,50990,231889,231888,231888,234232,Wisconsin Card Sorting Test,19,146528,34,1024
1,0,57,57,4267,4267,#3d3846,Mozilla,Netscape,"5.0 (Windows NT 10.0; Win64; x64) AppleWebKit/537.36 (KHTML, like Gecko) Chrome/125.0.0.0 Safari/537.36",osweb,osweb,0,blue,yellow,red,green,osweb,1,2,1,d,0,34,34,0,0,34,0,0,34,0,0,0,0,0,0,0,34,34,34,34,34,0,0,29-05-24,29-05-24,13:29:56,Wed May 29 2024 13:29:56 GMT+0100 (British Summer Time),The main experiment item,1,False,0,0,C:\Users\maalt\OneDrive - Universität Wien\Dokumente\Uni\Psychologie\8. Semester\Bachelorarbeit\Experimente\Winsconsin\osweb-version,0,0,0,False,mono,False,18,no,white,no,no,768,1080,1920,1,1,527062,3.8.6,47c87f94-a82d-0636-b77f-40fb00d57fe0,osweb,0,color,osweb,,4,1,2,3,osweb,2.1.0,https://jatos.mindprobe.eu,1,1080,1920,1,1,0,1,0,0,1,0,d,green,a,space,4,d,cross,2829,26356,15470,2829,2,osweb,1920,0,1920,0,1040,1920,24,1080,24,2255,31,1920,0,0,1716985792468,star,cross,triangle,circle,1024,2,48000,-16,experiment,,0,even,Win32,35,234239,237082,231367,69397,237600,24630,50990,234239,234238,234238,237599,Wisconsin Card Sorting Test,20,149357,35,1024
1,0,58,58,4226,4226,#3d3846,Mozilla,Netscape,"5.0 (Windows NT 10.0; Win64; x64) AppleWebKit/537.36 (KHTML, like Gecko) Chrome/125.0.0.0 Safari/537.36",osweb,osweb,0,red,green,yellow,blue,osweb,1,3,1,c,0,35,35,0,0,35,0,0,35,0,0,0,0,0,0,0,35,35,35,35,35,0,0,29-05-24,29-05-24,13:29:56,Wed May 29 2024 13:29:56 GMT+0100 (British Summer Time),The main experiment item,1,False,0,0,C:\Users\maalt\OneDrive - Universität Wien\Dokumente\Uni\Psychologie\8. Semester\Bachelorarbeit\Experimente\Winsconsin\osweb-version,0,0,0,False,mono,False,18,no,white,no,no,768,1080,1920,1,1,527062,3.8.6,47c87f94-a82d-0636-b77f-40fb00d57fe0,osweb,0,color,osweb,,3,4,2,1,osweb,2.1.0,https://jatos.mindprobe.eu,1,1080,1920,0,1,1,1,0,0,1,0,c,yellow,a,space,1,c,circle,2778,26356,15470,2778,2,osweb,1920,0,1920,0,1040,1920,24,1080,24,2255,31,1920,0,0,1716985792468,cross,circle,star,triangle,1024,2,48000,-16,experiment,,0,even,Win32,35,237611,240400,231367,69397,240916,24630,50990,237611,237609,237609,240916,Wisconsin Card Sorting Test,21,152135,36,1024
1,0,59,59,4194,4194,#3d3846,Mozilla,Netscape,"5.0 (Windows NT 10.0; Win64; x64) AppleWebKit/537.36 (KHTML, like Gecko) Chrome/125.0.0.0 Safari/537.36",osweb,osweb,0,red,blue,yellow,green,osweb,1,4,1,b,0,36,36,0,0,36,0,0,36,0,0,0,0,0,0,0,36,36,36,36,36,0,0,29-05-24,29-05-24,13:29:56,Wed May 29 2024 13:29:56 GMT+0100 (British Summer Time),The main experiment item,1,False,0,0,C:\Users\maalt\OneDrive - Universität Wien\Dokumente\Uni\Psychologie\8. Semester\Bachelorarbeit\Experimente\Winsconsin\osweb-version,0,0,0,False,mono,False,18,no,white,no,no,768,1080,1920,1,1,527062,3.8.6,47c87f94-a82d-0636-b77f-40fb00d57fe0,osweb,0,color,osweb,,2,3,4,1,osweb,2.1.0,https://jatos.mindprobe.eu,1,1080,1920,1,1,1,0,0,0,1,0,b,blue,a,space,2,b,cross,3030,26356,15470,3030,2,osweb,1920,0,1920,0,1040,1920,24,1080,24,2255,31,1920,0,0,1716985792468,star,circle,cross,triangle,1024,2,48000,-16,experiment,,0,even,Win32,35,240926,243967,231367,69397,244483,24630,50990,240926,240925,240925,244483,Wisconsin Card Sorting Test,22,155165,37,1024
1,0,61,61,4130,4130,#3d3846,Mozilla,Netscape,"5.0 (Windows NT 10.0; Win64; x64) AppleWebKit/537.36 (KHTML, like Gecko) Chrome/125.0.0.0 Safari/537.36",osweb,osweb,0,yellow,red,blue,green,osweb,1,0,1,c,0,37,37,0,0,37,0,0,37,0,0,0,0,0,0,0,37,37,37,37,37,0,0,29-05-24,29-05-24,13:29:56,Wed May 29 2024 13:29:56 GMT+0100 (British Summer Time),The main experiment item,1,False,0,0,C:\Users\maalt\OneDrive - Universität Wien\Dokumente\Uni\Psychologie\8. Semester\Bachelorarbeit\Experimente\Winsconsin\osweb-version,0,0,0,False,mono,False,18,no,white,no,no,768,1080,1920,1,1,527062,3.8.6,47c87f94-a82d-0636-b77f-40fb00d57fe0,osweb,0,shape,osweb,,3,4,2,1,osweb,2.1.0,https://jatos.mindprobe.eu,1,1080,1920,1,1,1,0,0,0,1,0,c,blue,a,space,4,c,star,1785,26356,15470,1785,2,osweb,1920,0,1920,0,1040,1920,24,1080,24,2255,31,1920,0,0,1716985792468,star,triangle,cross,circle,1024,2,48000,-16,experiment,,0,even,Win32,35,244506,246299,231367,69397,246817,24630,50990,244506,244504,244504,246816,Wisconsin Card Sorting Test,23,156950,38,1024
1,0,59,59,4075,4075,#3d3846,Mozilla,Netscape,"5.0 (Windows NT 10.0; Win64; x64) AppleWebKit/537.36 (KHTML, like Gecko) Chrome/125.0.0.0 Safari/537.36",osweb,osweb,0,yellow,green,red,blue,osweb,0,0,0,c,0,38,38,0,0,38,0,0,38,0,0,0,0,0,0,0,38,38,38,38,38,0,0,29-05-24,29-05-24,13:29:56,Wed May 29 2024 13:29:56 GMT+0100 (British Summer Time),The main experiment item,1,False,0,0,C:\Users\maalt\OneDrive - Universität Wien\Dokumente\Uni\Psychologie\8. Semester\Bachelorarbeit\Experimente\Winsconsin\osweb-version,0,0,0,False,mono,False,18,no,white,no,no,768,1080,1920,1,1,527062,3.8.6,47c87f94-a82d-0636-b77f-40fb00d57fe0,osweb,0,shape,osweb,,4,1,3,2,osweb,2.1.0,https://jatos.mindprobe.eu,1,1080,1920,0,1,1,1,0,0,1,0,d,blue,a,space,1,d,star,1976,26356,15470,1976,2,osweb,1920,0,1920,0,1040,1920,24,1080,24,2255,31,1920,0,0,1716985792468,triangle,cross,star,circle,1024,2,48000,-16,experiment,,0,even,Win32,35,246827,246299,248816,69397,249333,24630,50990,246827,246826,246826,249333,Wisconsin Card Sorting Test,23,158926,39,1024
1,0,60,60,4023,4023,#3d3846,Mozilla,Netscape,"5.0 (Windows NT 10.0; Win64; x64) AppleWebKit/537.36 (KHTML, like Gecko) Chrome/125.0.0.0 Safari/537.36",osweb,osweb,0,yellow,blue,red,green,osweb,1,1,1,d,0,39,39,0,0,39,0,0,39,0,0,0,0,0,0,0,39,39,39,39,39,0,0,29-05-24,29-05-24,13:29:56,Wed May 29 2024 13:29:56 GMT+0100 (British Summer Time),The main experiment item,1,False,0,0,C:\Users\maalt\OneDrive - Universität Wien\Dokumente\Uni\Psychologie\8. Semester\Bachelorarbeit\Experimente\Winsconsin\osweb-version,0,0,0,False,mono,False,18,no,white,no,no,768,1080,1920,1,1,527062,3.8.6,47c87f94-a82d-0636-b77f-40fb00d57fe0,osweb,0,shape,osweb,,2,1,4,3,osweb,2.1.0,https://jatos.mindprobe.eu,1,1080,1920,0,1,1,1,0,0,1,0,d,blue,a,space,4,d,cross,1980,26356,15470,1980,2,osweb,1920,0,1920,0,1040,1920,24,1080,24,2255,31,1920,0,0,1716985792468,circle,star,triangle,cross,1024,2,48000,-16,experiment,,0,even,Win32,35,249343,251333,248816,69397,251850,24630,50990,249343,249342,249342,251850,Wisconsin Card Sorting Test,24,160906,40,1024
1,0,61,61,4002,4002,#3d3846,Mozilla,Netscape,"5.0 (Windows NT 10.0; Win64; x64) AppleWebKit/537.36 (KHTML, like Gecko) Chrome/125.0.0.0 Safari/537.36",osweb,osweb,0,yellow,blue,green,red,osweb,1,2,1,b,0,40,40,0,0,40,0,0,40,0,0,0,0,0,0,0,40,40,40,40,40,0,0,29-05-24,29-05-24,13:29:56,Wed May 29 2024 13:29:56 GMT+0100 (British Summer Time),The main experiment item,1,False,0,0,C:\Users\maalt\OneDrive - Universität Wien\Dokumente\Uni\Psychologie\8. Semester\Bachelorarbeit\Experimente\Winsconsin\osweb-version,0,0,0,False,mono,False,18,no,white,no,no,768,1080,1920,1,1,527062,3.8.6,47c87f94-a82d-0636-b77f-40fb00d57fe0,osweb,0,shape,osweb,,3,2,4,1,osweb,2.1.0,https://jatos.mindprobe.eu,1,1080,1920,0,1,1,1,0,0,1,0,b,green,a,space,1,b,circle,3160,26356,15470,3160,2,osweb,1920,0,1920,0,1040,1920,24,1080,24,2255,31,1920,0,0,1716985792468,cross,circle,triangle,star,1024,2,48000,-16,experiment,,0,even,Win32,35,251860,255034,248816,69397,255551,24630,50990,251860,251858,251859,255550,Wisconsin Card Sorting Test,25,164066,41,1024
1,0,60,60,3962,3962,#3d3846,Mozilla,Netscape,"5.0 (Windows NT 10.0; Win64; x64) AppleWebKit/537.36 (KHTML, like Gecko) Chrome/125.0.0.0 Safari/537.36",osweb,osweb,0,blue,yellow,red,green,osweb,0,0,0,a,0,41,41,0,0,41,0,0,41,0,0,0,0,0,0,0,41,41,41,41,41,0,0,29-05-24,29-05-24,13:29:56,Wed May 29 2024 13:29:56 GMT+0100 (British Summer Time),The main experiment item,1,False,0,0,C:\Users\maalt\OneDrive - Universität Wien\Dokumente\Uni\Psychologie\8. Semester\Bachelorarbeit\Experimente\Winsconsin\osweb-version,0,0,0,False,mono,False,18,no,white,no,no,768,1080,1920,1,1,527062,3.8.6,47c87f94-a82d-0636-b77f-40fb00d57fe0,osweb,0,shape,osweb,,2,3,4,1,osweb,2.1.0,https://jatos.mindprobe.eu,1,1080,1920,1,1,1,0,0,0,1,0,c,red,a,space,3,c,triangle,2333,26356,15470,2333,2,osweb,1920,0,1920,0,1040,1920,24,1080,24,2255,31,1920,0,0,1716985792468,triangle,star,circle,cross,1024,2,48000,-16,experiment,,0,even,Win32,35,255575,255034,257918,69397,258434,24630,50990,255575,255573,255573,258433,Wisconsin Card Sorting Test,25,166399,42,1024
1,0,58,58,3926,3926,#3d3846,Mozilla,Netscape,"5.0 (Windows NT 10.0; Win64; x64) AppleWebKit/537.36 (KHTML, like Gecko) Chrome/125.0.0.0 Safari/537.36",osweb,osweb,0,red,green,yellow,blue,osweb,0,0,0,d,0,42,42,0,0,42,0,0,42,0,0,0,0,0,0,0,42,42,42,42,42,0,0,29-05-24,29-05-24,13:29:56,Wed May 29 2024 13:29:56 GMT+0100 (British Summer Time),The main experiment item,1,False,0,0,C:\Users\maalt\OneDrive - Universität Wien\Dokumente\Uni\Psychologie\8. Semester\Bachelorarbeit\Experimente\Winsconsin\osweb-version,0,0,0,False,mono,False,18,no,white,no,no,768,1080,1920,1,1,527062,3.8.6,47c87f94-a82d-0636-b77f-40fb00d57fe0,osweb,0,shape,osweb,,4,3,2,1,osweb,2.1.0,https://jatos.mindprobe.eu,1,1080,1920,1,0,1,1,0,0,1,0,a,red,a,space,2,a,circle,2415,26356,15470,2415,2,osweb,1920,0,1920,0,1040,1920,24,1080,24,2255,31,1920,0,0,1716985792468,triangle,star,cross,circle,1024,2,48000,-16,experiment,,0,even,Win32,35,258444,255034,260868,69397,261384,24630,50990,258445,258442,258442,261384,Wisconsin Card Sorting Test,25,168814,43,1024
1,0,57,57,3894,3894,#3d3846,Mozilla,Netscape,"5.0 (Windows NT 10.0; Win64; x64) AppleWebKit/537.36 (KHTML, like Gecko) Chrome/125.0.0.0 Safari/537.36",osweb,osweb,0,yellow,red,blue,green,osweb,0,0,0,d,0,43,43,0,0,43,0,0,43,0,0,0,0,0,0,0,43,43,43,43,43,0,0,29-05-24,29-05-24,13:29:56,Wed May 29 2024 13:29:56 GMT+0100 (British Summer Time),The main experiment item,1,False,0,0,C:\Users\maalt\OneDrive - Universität Wien\Dokumente\Uni\Psychologie\8. Semester\Bachelorarbeit\Experimente\Winsconsin\osweb-version,0,0,0,False,mono,False,18,no,white,no,no,768,1080,1920,1,1,527062,3.8.6,47c87f94-a82d-0636-b77f-40fb00d57fe0,osweb,0,shape,osweb,,2,3,4,1,osweb,2.1.0,https://jatos.mindprobe.eu,1,1080,1920,1,0,1,1,0,0,1,0,c,blue,a,space,2,c,cross,2506,26356,15470,2506,2,osweb,1920,0,1920,0,1040,1920,24,1080,24,2255,31,1920,0,0,1716985792468,triangle,star,circle,cross,1024,2,48000,-16,experiment,,0,even,Win32,35,261395,255034,263918,69397,264434,24630,50990,261395,261393,261393,264434,Wisconsin Card Sorting Test,25,171320,44,1024
1,0,58,58,3844,3844,#3d3846,Mozilla,Netscape,"5.0 (Windows NT 10.0; Win64; x64) AppleWebKit/537.36 (KHTML, like Gecko) Chrome/125.0.0.0 Safari/537.36",osweb,osweb,0,red,blue,yellow,green,osweb,1,1,1,c,0,44,44,0,0,44,0,0,44,0,0,0,0,0,0,0,44,44,44,44,44,0,0,29-05-24,29-05-24,13:29:56,Wed May 29 2024 13:29:56 GMT+0100 (British Summer Time),The main experiment item,1,False,0,0,C:\Users\maalt\OneDrive - Universität Wien\Dokumente\Uni\Psychologie\8. Semester\Bachelorarbeit\Experimente\Winsconsin\osweb-version,0,0,0,False,mono,False,18,no,white,no,no,768,1080,1920,1,1,527062,3.8.6,47c87f94-a82d-0636-b77f-40fb00d57fe0,osweb,0,shape,osweb,,4,3,2,1,osweb,2.1.0,https://jatos.mindprobe.eu,1,1080,1920,0,1,1,1,0,0,1,0,c,blue,a,space,1,c,circle,1639,26356,15470,1639,2,osweb,1920,0,1920,0,1040,1920,24,1080,24,2255,31,1920,0,0,1716985792468,triangle,star,circle,cross,1024,2,48000,-16,experiment,,0,even,Win32,35,264445,266084,263918,69397,266601,24630,50990,264445,264444,264444,266601,Wisconsin Card Sorting Test,26,172959,45,1024
1,0,59,59,3826,3826,#3d3846,Mozilla,Netscape,"5.0 (Windows NT 10.0; Win64; x64) AppleWebKit/537.36 (KHTML, like Gecko) Chrome/125.0.0.0 Safari/537.36",osweb,osweb,0,green,blue,yellow,red,osweb,1,2,1,a,0,45,45,0,0,45,0,0,45,0,0,0,0,0,0,0,45,45,45,45,45,0,0,29-05-24,29-05-24,13:29:56,Wed May 29 2024 13:29:56 GMT+0100 (British Summer Time),The main experiment item,1,False,0,0,C:\Users\maalt\OneDrive - Universität Wien\Dokumente\Uni\Psychologie\8. Semester\Bachelorarbeit\Experimente\Winsconsin\osweb-version,0,0,0,False,mono,False,18,no,white,no,no,768,1080,1920,1,1,527062,3.8.6,47c87f94-a82d-0636-b77f-40fb00d57fe0,osweb,0,shape,osweb,,3,2,4,1,osweb,2.1.0,https://jatos.mindprobe.eu,1,1080,1920,1,1,0,1,0,0,1,0,a,blue,a,space,1,a,cross,3048,26356,15470,3048,2,osweb,1920,0,1920,0,1040,1920,24,1080,24,2255,31,1920,0,0,1716985792468,cross,triangle,star,circle,1024,2,48000,-16,experiment,,0,even,Win32,35,266612,269668,263918,69397,270185,24630,50990,266613,266610,266610,270184,Wisconsin Card Sorting Test,27,176007,46,1024
1,0,60,60,3792,3792,#3d3846,Mozilla,Netscape,"5.0 (Windows NT 10.0; Win64; x64) AppleWebKit/537.36 (KHTML, like Gecko) Chrome/125.0.0.0 Safari/537.36",osweb,osweb,0,blue,yellow,green,red,osweb,1,3,1,a,0,46,46,0,0,46,0,0,46,0,0,0,0,0,0,0,46,46,46,46,46,0,0,29-05-24,29-05-24,13:29:56,Wed May 29 2024 13:29:56 GMT+0100 (British Summer Time),The main experiment item,1,False,0,0,C:\Users\maalt\OneDrive - Universität Wien\Dokumente\Uni\Psychologie\8. Semester\Bachelorarbeit\Experimente\Winsconsin\osweb-version,0,0,0,False,mono,False,18,no,white,no,no,768,1080,1920,1,1,527062,3.8.6,47c87f94-a82d-0636-b77f-40fb00d57fe0,osweb,0,shape,osweb,,4,2,3,1,osweb,2.1.0,https://jatos.mindprobe.eu,1,1080,1920,1,1,0,1,0,0,1,0,a,red,a,space,2,a,circle,2239,26356,15470,2239,2,osweb,1920,0,1920,0,1040,1920,24,1080,24,2255,31,1920,0,0,1716985792468,circle,cross,triangle,star,1024,2,48000,-16,experiment,,0,even,Win32,35,270203,272451,263918,69397,272968,24630,50990,270204,270202,270202,272968,Wisconsin Card Sorting Test,28,178246,47,1024
1,0,60,60,3764,3764,#3d3846,Mozilla,Netscape,"5.0 (Windows NT 10.0; Win64; x64) AppleWebKit/537.36 (KHTML, like Gecko) Chrome/125.0.0.0 Safari/537.36",osweb,osweb,0,blue,red,yellow,green,osweb,1,4,1,b,0,47,47,0,0,47,0,0,47,0,0,0,0,0,0,0,47,47,47,47,47,0,0,29-05-24,29-05-24,13:29:56,Wed May 29 2024 13:29:56 GMT+0100 (British Summer Time),The main experiment item,1,False,0,0,C:\Users\maalt\OneDrive - Universität Wien\Dokumente\Uni\Psychologie\8. Semester\Bachelorarbeit\Experimente\Winsconsin\osweb-version,0,0,0,False,mono,False,18,no,white,no,no,768,1080,1920,1,1,527062,3.8.6,47c87f94-a82d-0636-b77f-40fb00d57fe0,osweb,0,shape,osweb,,1,4,2,3,osweb,2.1.0,https://jatos.mindprobe.eu,1,1080,1920,1,1,1,0,0,0,1,0,b,blue,a,space,2,b,triangle,2411,26356,15470,2411,2,osweb,1920,0,1920,0,1040,1920,24,1080,24,2255,31,1920,0,0,1716985792468,cross,triangle,circle,star,1024,2,48000,-16,experiment,,0,even,Win32,35,272986,275402,263918,69397,275918,24630,50990,272986,272986,272986,275918,Wisconsin Card Sorting Test,29,180657,48,1024
1,0,61,61,3743,3743,#3d3846,Mozilla,Netscape,"5.0 (Windows NT 10.0; Win64; x64) AppleWebKit/537.36 (KHTML, like Gecko) Chrome/125.0.0.0 Safari/537.36",osweb,osweb,0,yellow,blue,red,green,osweb,1,0,1,d,0,48,48,0,0,48,0,0,48,0,0,0,0,0,0,0,48,48,48,48,48,0,0,29-05-24,29-05-24,13:29:56,Wed May 29 2024 13:29:56 GMT+0100 (British Summer Time),The main experiment item,1,False,0,0,C:\Users\maalt\OneDrive - Universität Wien\Dokumente\Uni\Psychologie\8. Semester\Bachelorarbeit\Experimente\Winsconsin\osweb-version,0,0,0,False,mono,False,18,no,white,no,no,768,1080,1920,1,1,527062,3.8.6,47c87f94-a82d-0636-b77f-40fb00d57fe0,osweb,0,number,osweb,,2,4,1,3,osweb,2.1.0,https://jatos.mindprobe.eu,1,1080,1920,1,0,1,1,0,0,1,0,d,yellow,a,space,1,d,star,2737,26356,15470,2737,2,osweb,1920,0,1920,0,1040,1920,24,1080,24,2255,31,1920,0,0,1716985792468,cross,triangle,circle,star,1024,2,48000,-16,experiment,,0,even,Win32,35,275930,278669,263918,69397,279185,24630,50990,275930,275928,275928,279185,Wisconsin Card Sorting Test,30,183394,49,1024
1,0,60,60,3707,3707,#3d3846,Mozilla,Netscape,"5.0 (Windows NT 10.0; Win64; x64) AppleWebKit/537.36 (KHTML, like Gecko) Chrome/125.0.0.0 Safari/537.36",osweb,osweb,0,blue,green,yellow,red,osweb,0,0,0,a,0,49,49,0,0,49,0,0,49,0,0,0,0,0,0,0,49,49,49,49,49,0,0,29-05-24,29-05-24,13:29:56,Wed May 29 2024 13:29:56 GMT+0100 (British Summer Time),The main experiment item,1,False,0,0,C:\Users\maalt\OneDrive - Universität Wien\Dokumente\Uni\Psychologie\8. Semester\Bachelorarbeit\Experimente\Winsconsin\osweb-version,0,0,0,False,mono,False,18,no,white,no,no,768,1080,1920,1,1,527062,3.8.6,47c87f94-a82d-0636-b77f-40fb00d57fe0,osweb,0,number,osweb,,3,1,2,4,osweb,2.1.0,https://jatos.mindprobe.eu,1,1080,1920,1,0,1,1,0,0,1,0,d,yellow,a,space,3,d,cross,1951,26356,15470,1951,2,osweb,1920,0,1920,0,1040,1920,24,1080,24,2255,31,1920,0,0,1716985792468,triangle,star,circle,cross,1024,2,48000,-16,experiment,,0,even,Win32,35,279196,278669,281151,69397,281652,24630,50990,279196,279194,279194,281652,Wisconsin Card Sorting Test,30,185345,50,1024
1,0,59,59,3670,3670,#3d3846,Mozilla,Netscape,"5.0 (Windows NT 10.0; Win64; x64) AppleWebKit/537.36 (KHTML, like Gecko) Chrome/125.0.0.0 Safari/537.36",osweb,osweb,0,red,blue,yellow,green,osweb,0,0,0,c,0,50,50,0,0,50,0,0,50,0,0,0,0,0,0,0,50,50,50,50,50,0,0,29-05-24,29-05-24,13:29:56,Wed May 29 2024 13:29:56 GMT+0100 (British Summer Time),The main experiment item,1,False,0,0,C:\Users\maalt\OneDrive - Universität Wien\Dokumente\Uni\Psychologie\8. Semester\Bachelorarbeit\Experimente\Winsconsin\osweb-version,0,0,0,False,mono,False,18,no,white,no,no,768,1080,1920,1,1,527062,3.8.6,47c87f94-a82d-0636-b77f-40fb00d57fe0,osweb,0,number,osweb,,4,1,2,3,osweb,2.1.0,https://jatos.mindprobe.eu,1,1080,1920,1,1,1,0,0,0,1,0,a,red,a,space,2,a,star,1843,26356,15470,1843,2,osweb,1920,0,1920,0,1040,1920,24,1080,24,2255,31,1920,0,0,1716985792468,cross,star,circle,triangle,1024,2,48000,-16,experiment,,0,even,Win32,35,281663,278669,283518,69397,284035,24630,50990,281664,281662,281662,284035,Wisconsin Card Sorting Test,30,187188,51,1024
1,0,58,58,3666,3666,#3d3846,Mozilla,Netscape,"5.0 (Windows NT 10.0; Win64; x64) AppleWebKit/537.36 (KHTML, like Gecko) Chrome/125.0.0.0 Safari/537.36",osweb,osweb,0,red,blue,green,yellow,osweb,0,0,0,d,0,51,51,0,0,51,0,0,51,0,0,0,0,0,0,0,51,51,51,51,51,0,0,29-05-24,29-05-24,13:29:56,Wed May 29 2024 13:29:56 GMT+0100 (British Summer Time),The main experiment item,1,False,0,0,C:\Users\maalt\OneDrive - Universität Wien\Dokumente\Uni\Psychologie\8. Semester\Bachelorarbeit\Experimente\Winsconsin\osweb-version,0,0,0,False,mono,False,18,no,white,no,no,768,1080,1920,1,1,527062,3.8.6,47c87f94-a82d-0636-b77f-40fb00d57fe0,osweb,0,number,osweb,,1,3,4,2,osweb,2.1.0,https://jatos.mindprobe.eu,1,1080,1920,1,0,1,1,0,0,1,0,c,red,a,space,2,c,circle,3462,26356,15470,3462,2,osweb,1920,0,1920,0,1040,1920,24,1080,24,2255,31,1920,0,0,1716985792468,cross,star,circle,triangle,1024,2,48000,-16,experiment,,0,even,Win32,35,284047,278669,287520,69397,288036,24630,50990,284047,284044,284044,288035,Wisconsin Card Sorting Test,30,190650,52,1024
1,0,57,57,3684,3684,#3d3846,Mozilla,Netscape,"5.0 (Windows NT 10.0; Win64; x64) AppleWebKit/537.36 (KHTML, like Gecko) Chrome/125.0.0.0 Safari/537.36",osweb,osweb,0,red,yellow,blue,green,osweb,0,0,0,d,0,52,52,0,0,52,0,0,52,0,0,0,0,0,0,0,52,52,52,52,52,0,0,29-05-24,29-05-24,13:29:56,Wed May 29 2024 13:29:56 GMT+0100 (British Summer Time),The main experiment item,1,False,0,0,C:\Users\maalt\OneDrive - Universität Wien\Dokumente\Uni\Psychologie\8. Semester\Bachelorarbeit\Experimente\Winsconsin\osweb-version,0,0,0,False,mono,False,18,no,white,no,no,768,1080,1920,1,1,527062,3.8.6,47c87f94-a82d-0636-b77f-40fb00d57fe0,osweb,0,number,osweb,,2,4,1,3,osweb,2.1.0,https://jatos.mindprobe.eu,1,1080,1920,1,0,1,1,0,0,1,0,c,blue,a,space,3,c,cross,4589,26356,15470,4589,2,osweb,1920,0,1920,0,1040,1920,24,1080,24,2255,31,1920,0,0,1716985792468,cross,circle,star,triangle,1024,2,48000,-16,experiment,,0,even,Win32,35,288048,278669,292653,69397,293169,24630,50990,288048,288046,288046,293169,Wisconsin Card Sorting Test,30,195239,53,1024
1,0,56,56,3657,3657,#3d3846,Mozilla,Netscape,"5.0 (Windows NT 10.0; Win64; x64) AppleWebKit/537.36 (KHTML, like Gecko) Chrome/125.0.0.0 Safari/537.36",osweb,osweb,0,red,green,blue,yellow,osweb,0,0,0,d,0,53,53,0,0,53,0,0,53,0,0,0,0,0,0,0,53,53,53,53,53,0,0,29-05-24,29-05-24,13:29:56,Wed May 29 2024 13:29:56 GMT+0100 (British Summer Time),The main experiment item,1,False,0,0,C:\Users\maalt\OneDrive - Universität Wien\Dokumente\Uni\Psychologie\8. Semester\Bachelorarbeit\Experimente\Winsconsin\osweb-version,0,0,0,False,mono,False,18,no,white,no,no,768,1080,1920,1,1,527062,3.8.6,47c87f94-a82d-0636-b77f-40fb00d57fe0,osweb,0,number,osweb,,4,2,1,3,osweb,2.1.0,https://jatos.mindprobe.eu,1,1080,1920,1,0,1,1,0,0,1,0,a,blue,a,space,3,a,circle,2232,26356,15470,2232,2,osweb,1920,0,1920,0,1040,1920,24,1080,24,2255,31,1920,0,0,1716985792468,circle,cross,triangle,star,1024,2,48000,-16,experiment,,0,even,Win32,35,293181,278669,295420,69397,295935,24630,50990,293181,293179,293179,295935,Wisconsin Card Sorting Test,30,197471,54,1024
1,0,56,56,3665,3665,#3d3846,Mozilla,Netscape,"5.0 (Windows NT 10.0; Win64; x64) AppleWebKit/537.36 (KHTML, like Gecko) Chrome/125.0.0.0 Safari/537.36",osweb,osweb,0,green,yellow,red,blue,osweb,1,1,1,b,0,54,54,0,0,54,0,0,54,0,0,0,0,0,0,0,54,54,54,54,54,0,0,29-05-24,29-05-24,13:29:56,Wed May 29 2024 13:29:56 GMT+0100 (British Summer Time),The main experiment item,1,False,0,0,C:\Users\maalt\OneDrive - Universität Wien\Dokumente\Uni\Psychologie\8. Semester\Bachelorarbeit\Experimente\Winsconsin\osweb-version,0,0,0,False,mono,False,18,no,white,no,no,768,1080,1920,1,1,527062,3.8.6,47c87f94-a82d-0636-b77f-40fb00d57fe0,osweb,0,number,osweb,,1,2,4,3,osweb,2.1.0,https://jatos.mindprobe.eu,1,1080,1920,0,1,1,1,0,0,1,0,b,blue,a,space,2,b,triangle,4124,26356,15470,4124,2,osweb,1920,0,1920,0,1040,1920,24,1080,24,2255,31,1920,0,0,1716985792468,circle,star,triangle,cross,1024,2,48000,-16,experiment,,0,even,Win32,35,295943,300069,295420,69397,300586,24630,50990,295943,295942,295942,300586,Wisconsin Card Sorting Test,31,201595,55,1024
1,0,57,57,3644,3644,#3d3846,Mozilla,Netscape,"5.0 (Windows NT 10.0; Win64; x64) AppleWebKit/537.36 (KHTML, like Gecko) Chrome/125.0.0.0 Safari/537.36",osweb,osweb,0,blue,red,yellow,green,osweb,1,2,1,a,0,55,55,0,0,55,0,0,55,0,0,0,0,0,0,0,55,55,55,55,55,0,0,29-05-24,29-05-24,13:29:56,Wed May 29 2024 13:29:56 GMT+0100 (British Summer Time),The main experiment item,1,False,0,0,C:\Users\maalt\OneDrive - Universität Wien\Dokumente\Uni\Psychologie\8. Semester\Bachelorarbeit\Experimente\Winsconsin\osweb-version,0,0,0,False,mono,False,18,no,white,no,no,768,1080,1920,1,1,527062,3.8.6,47c87f94-a82d-0636-b77f-40fb00d57fe0,osweb,0,number,osweb,,4,3,2,1,osweb,2.1.0,https://jatos.mindprobe.eu,1,1080,1920,1,0,1,1,0,0,1,0,a,yellow,a,space,4,a,star,2462,26356,15470,2462,2,osweb,1920,0,1920,0,1040,1920,24,1080,24,2255,31,1920,0,0,1716985792468,triangle,cross,circle,star,1024,2,48000,-16,experiment,,0,even,Win32,35,300597,303069,295420,69397,303586,24630,50990,300597,300596,300596,303586,Wisconsin Card Sorting Test,32,204057,56,1024
1,0,58,58,3653,3653,#3d3846,Mozilla,Netscape,"5.0 (Windows NT 10.0; Win64; x64) AppleWebKit/537.36 (KHTML, like Gecko) Chrome/125.0.0.0 Safari/537.36",osweb,osweb,0,red,green,blue,yellow,osweb,1,3,1,c,0,56,56,0,0,56,0,0,56,0,0,0,0,0,0,0,56,56,56,56,56,0,0,29-05-24,29-05-24,13:29:56,Wed May 29 2024 13:29:56 GMT+0100 (British Summer Time),The main experiment item,1,False,0,0,C:\Users\maalt\OneDrive - Universität Wien\Dokumente\Uni\Psychologie\8. Semester\Bachelorarbeit\Experimente\Winsconsin\osweb-version,0,0,0,False,mono,False,18,no,white,no,no,768,1080,1920,1,1,527062,3.8.6,47c87f94-a82d-0636-b77f-40fb00d57fe0,osweb,0,number,osweb,,2,4,3,1,osweb,2.1.0,https://jatos.mindprobe.eu,1,1080,1920,0,1,1,1,0,0,1,0,c,green,a,space,3,c,cross,4153,26356,15470,4153,2,osweb,1920,0,1920,0,1040,1920,24,1080,24,2255,31,1920,0,0,1716985792468,triangle,star,circle,cross,1024,2,48000,-16,experiment,,0,even,Win32,35,303595,307754,295420,69397,308270,24630,50990,303595,303593,303593,308270,Wisconsin Card Sorting Test,33,208210,57,1024
1,0,59,59,3630,3630,#3d3846,Mozilla,Netscape,"5.0 (Windows NT 10.0; Win64; x64) AppleWebKit/537.36 (KHTML, like Gecko) Chrome/125.0.0.0 Safari/537.36",osweb,osweb,0,red,green,yellow,blue,osweb,1,4,1,a,0,57,57,0,0,57,0,0,57,0,0,0,0,0,0,0,57,57,57,57,57,0,0,29-05-24,29-05-24,13:29:56,Wed May 29 2024 13:29:56 GMT+0100 (British Summer Time),The main experiment item,1,False,0,0,C:\Users\maalt\OneDrive - Universität Wien\Dokumente\Uni\Psychologie\8. Semester\Bachelorarbeit\Experimente\Winsconsin\osweb-version,0,0,0,False,mono,False,18,no,white,no,no,768,1080,1920,1,1,527062,3.8.6,47c87f94-a82d-0636-b77f-40fb00d57fe0,osweb,0,number,osweb,,4,2,1,3,osweb,2.1.0,https://jatos.mindprobe.eu,1,1080,1920,1,1,1,0,0,0,1,0,a,yellow,a,space,4,a,triangle,2302,26356,15470,2302,2,osweb,1920,0,1920,0,1040,1920,24,1080,24,2255,31,1920,0,0,1716985792468,star,triangle,cross,circle,1024,2,48000,-16,experiment,,0,even,Win32,35,308279,310587,295420,69397,311103,24630,50990,308279,308277,308277,311103,Wisconsin Card Sorting Test,34,210512,58,1024
1,0,59,59,3599,3599,#3d3846,Mozilla,Netscape,"5.0 (Windows NT 10.0; Win64; x64) AppleWebKit/537.36 (KHTML, like Gecko) Chrome/125.0.0.0 Safari/537.36",osweb,osweb,0,blue,yellow,green,red,osweb,1,0,1,c,0,58,58,0,0,58,0,0,58,0,0,0,0,0,0,0,58,58,58,58,58,0,0,29-05-24,29-05-24,13:29:56,Wed May 29 2024 13:29:56 GMT+0100 (British Summer Time),The main experiment item,1,False,0,0,C:\Users\maalt\OneDrive - Universität Wien\Dokumente\Uni\Psychologie\8. Semester\Bachelorarbeit\Experimente\Winsconsin\osweb-version,0,0,0,False,mono,False,18,no,white,no,no,768,1080,1920,1,1,527062,3.8.6,47c87f94-a82d-0636-b77f-40fb00d57fe0,osweb,0,color,osweb,,4,3,1,2,osweb,2.1.0,https://jatos.mindprobe.eu,1,1080,1920,1,0,1,1,0,0,1,0,c,blue,a,space,1,c,circle,1858,26356,15470,1858,2,osweb,1920,0,1920,0,1040,1920,24,1080,24,2255,31,1920,0,0,1716985792468,triangle,cross,star,circle,1024,2,48000,-16,experiment,,0,even,Win32,35,311114,312988,295420,69397,313504,24630,50990,311114,311112,311112,313504,Wisconsin Card Sorting Test,35,212370,59,1024
1,0,58,58,3584,3584,#3d3846,Mozilla,Netscape,"5.0 (Windows NT 10.0; Win64; x64) AppleWebKit/537.36 (KHTML, like Gecko) Chrome/125.0.0.0 Safari/537.36",osweb,osweb,0,yellow,red,green,blue,osweb,0,0,0,a,0,59,59,0,0,59,0,0,59,0,0,0,0,0,0,0,59,59,59,59,59,0,0,29-05-24,29-05-24,13:29:56,Wed May 29 2024 13:29:56 GMT+0100 (British Summer Time),The main experiment item,1,False,0,0,C:\Users\maalt\OneDrive - Universität Wien\Dokumente\Uni\Psychologie\8. Semester\Bachelorarbeit\Experimente\Winsconsin\osweb-version,0,0,0,False,mono,False,18,no,white,no,no,768,1080,1920,1,1,527062,3.8.6,47c87f94-a82d-0636-b77f-40fb00d57fe0,osweb,0,color,osweb,,1,4,3,2,osweb,2.1.0,https://jatos.mindprobe.eu,1,1080,1920,1,0,1,1,0,0,1,0,c,yellow,a,space,3,c,circle,2664,26356,15470,2664,2,osweb,1920,0,1920,0,1040,1920,24,1080,24,2255,31,1920,0,0,1716985792468,cross,triangle,star,circle,1024,2,48000,-16,experiment,,0,even,Win32,35,313516,312988,316187,69397,316704,24630,50990,313516,313513,313513,316704,Wisconsin Card Sorting Test,35,215034,60,1024
1,0,59,59,3558,3558,#3d3846,Mozilla,Netscape,"5.0 (Windows NT 10.0; Win64; x64) AppleWebKit/537.36 (KHTML, like Gecko) Chrome/125.0.0.0 Safari/537.36",osweb,osweb,0,yellow,blue,red,green,osweb,1,1,1,a,0,60,60,0,0,60,0,0,60,0,0,0,0,0,0,0,60,60,60,60,60,0,0,29-05-24,29-05-24,13:29:56,Wed May 29 2024 13:29:56 GMT+0100 (British Summer Time),The main experiment item,1,False,0,0,C:\Users\maalt\OneDrive - Universität Wien\Dokumente\Uni\Psychologie\8. Semester\Bachelorarbeit\Experimente\Winsconsin\osweb-version,0,0,0,False,mono,False,18,no,white,no,no,768,1080,1920,1,1,527062,3.8.6,47c87f94-a82d-0636-b77f-40fb00d57fe0,osweb,0,color,osweb,,2,3,4,1,osweb,2.1.0,https://jatos.mindprobe.eu,1,1080,1920,1,1,0,1,0,0,1,0,a,yellow,a,space,3,a,cross,2010,26356,15470,2010,2,osweb,1920,0,1920,0,1040,1920,24,1080,24,2255,31,1920,0,0,1716985792468,triangle,star,circle,cross,1024,2,48000,-16,experiment,,0,even,Win32,35,316722,318737,316187,69397,319253,24630,50990,316722,316720,316720,319253,Wisconsin Card Sorting Test,36,217044,61,1024
1,0,60,60,3540,3540,#3d3846,Mozilla,Netscape,"5.0 (Windows NT 10.0; Win64; x64) AppleWebKit/537.36 (KHTML, like Gecko) Chrome/125.0.0.0 Safari/537.36",osweb,osweb,0,yellow,green,red,blue,osweb,1,2,1,d,0,61,61,0,0,61,0,0,61,0,0,0,0,0,0,0,61,61,61,61,61,0,0,29-05-24,29-05-24,13:29:56,Wed May 29 2024 13:29:56 GMT+0100 (British Summer Time),The main experiment item,1,False,0,0,C:\Users\maalt\OneDrive - Universität Wien\Dokumente\Uni\Psychologie\8. Semester\Bachelorarbeit\Experimente\Winsconsin\osweb-version,0,0,0,False,mono,False,18,no,white,no,no,768,1080,1920,1,1,527062,3.8.6,47c87f94-a82d-0636-b77f-40fb00d57fe0,osweb,0,color,osweb,,1,3,4,2,osweb,2.1.0,https://jatos.mindprobe.eu,1,1080,1920,1,0,1,1,0,0,1,0,d,blue,a,space,1,d,circle,2446,26356,15470,2446,2,osweb,1920,0,1920,0,1040,1920,24,1080,24,2255,31,1920,0,0,1716985792468,triangle,cross,circle,star,1024,2,48000,-16,experiment,,0,even,Win32,35,319262,321721,316187,69397,322222,24630,50990,319262,319260,319260,322222,Wisconsin Card Sorting Test,37,219490,62,1024
1,0,60,60,3535,3535,#3d3846,Mozilla,Netscape,"5.0 (Windows NT 10.0; Win64; x64) AppleWebKit/537.36 (KHTML, like Gecko) Chrome/125.0.0.0 Safari/537.36",osweb,osweb,0,green,yellow,red,blue,osweb,1,3,1,c,0,62,62,0,0,62,0,0,62,0,0,0,0,0,0,0,62,62,62,62,62,0,0,29-05-24,29-05-24,13:29:56,Wed May 29 2024 13:29:56 GMT+0100 (British Summer Time),The main experiment item,1,False,0,0,C:\Users\maalt\OneDrive - Universität Wien\Dokumente\Uni\Psychologie\8. Semester\Bachelorarbeit\Experimente\Winsconsin\osweb-version,0,0,0,False,mono,False,18,no,white,no,no,768,1080,1920,1,1,527062,3.8.6,47c87f94-a82d-0636-b77f-40fb00d57fe0,osweb,0,color,osweb,,2,4,1,3,osweb,2.1.0,https://jatos.mindprobe.eu,1,1080,1920,1,1,1,0,0,0,1,0,c,red,a,space,2,c,star,3191,26356,15470,3191,2,osweb,1920,0,1920,0,1040,1920,24,1080,24,2255,31,1920,0,0,1716985792468,triangle,star,cross,circle,1024,2,48000,-16,experiment,,0,even,Win32,35,322229,325421,316187,69397,325938,24630,50990,322229,322229,322229,325938,Wisconsin Card Sorting Test,38,222681,63,1024
1,0,61,61,3521,3521,#3d3846,Mozilla,Netscape,"5.0 (Windows NT 10.0; Win64; x64) AppleWebKit/537.36 (KHTML, like Gecko) Chrome/125.0.0.0 Safari/537.36",osweb,osweb,0,blue,yellow,red,green,osweb,1,4,1,b,0,63,63,0,0,63,0,0,63,0,0,0,0,0,0,0,63,63,63,63,63,0,0,29-05-24,29-05-24,13:29:56,Wed May 29 2024 13:29:56 GMT+0100 (British Summer Time),The main experiment item,1,False,0,0,C:\Users\maalt\OneDrive - Universität Wien\Dokumente\Uni\Psychologie\8. Semester\Bachelorarbeit\Experimente\Winsconsin\osweb-version,0,0,0,False,mono,False,18,no,white,no,no,768,1080,1920,1,1,527062,3.8.6,47c87f94-a82d-0636-b77f-40fb00d57fe0,osweb,0,color,osweb,,3,1,2,4,osweb,2.1.0,https://jatos.mindprobe.eu,1,1080,1920,1,1,0,1,0,0,1,0,b,yellow,a,space,4,b,star,2663,26356,15470,2663,2,osweb,1920,0,1920,0,1040,1920,24,1080,24,2255,31,1920,0,0,1716985792468,star,cross,triangle,circle,1024,2,48000,-16,experiment,,0,even,Win32,35,325948,328621,316187,69397,329138,24630,50990,325948,325947,325947,329138,Wisconsin Card Sorting Test,39,225344,64,1024
1,0,0,0,3965,3965,#3d3846,Mozilla,Netscape,"5.0 (Windows NT 10.0; Win64; x64) AppleWebKit/537.36 (KHTML, like Gecko) Chrome/125.0.0.0 Safari/537.36",osweb,osweb,0,red,blue,green,yellow,osweb,0,0,0,a,0,0,0,0,0,0,0,0,0,0,0,0,0,0,0,0,0,0,0,0,0,0,0,29-05-24,29-05-24,15:35:24,Wed May 29 2024 15:35:24 GMT+0300 (Itä-Euroopan kesäaika),The main experiment item,1.5,False,0,0,C:\Users\maalt\OneDrive - Universität Wien\Dokumente\Uni\Psychologie\8. Semester\Bachelorarbeit\Experimente\Winsconsin\osweb-version,0,0,0,False,mono,False,18,no,white,no,no,768,720,1280,1,1,527063,3.8.6,47c87f94-a82d-0636-b77f-40fb00d57fe0,osweb,0,color,osweb,,2,1,3,4,osweb,2.1.0,https://jatos.mindprobe.eu,1,706,1266,1,1,1,0,0,0,1,0,b,red,a,space,1,b,star,3965,11549,5042,3965,2,osweb,7,7,7,7,672,1280,24,720,24,0,0,1280,0,0,1716986131078,cross,triangle,star,circle,1024,2,48000,-16,experiment,,1,odd,Win32,140,49716,,53689,49656,54202,29627,41190,49719,49701,49701,54201,Wisconsin Card Sorting Test,0,3965,1,1024
1,0,50,50,4686,4686,#3d3846,Mozilla,Netscape,"5.0 (Windows NT 10.0; Win64; x64) AppleWebKit/537.36 (KHTML, like Gecko) Chrome/125.0.0.0 Safari/537.36",osweb,osweb,0,green,blue,red,yellow,osweb,1,1,1,c,0,1,1,0,0,1,0,0,1,0,0,0,0,0,0,0,1,1,1,1,1,0,0,29-05-24,29-05-24,15:35:24,Wed May 29 2024 15:35:24 GMT+0300 (Itä-Euroopan kesäaika),The main experiment item,1.5,False,0,0,C:\Users\maalt\OneDrive - Universität Wien\Dokumente\Uni\Psychologie\8. Semester\Bachelorarbeit\Experimente\Winsconsin\osweb-version,0,0,0,False,mono,False,18,no,white,no,no,768,720,1280,1,1,527063,3.8.6,47c87f94-a82d-0636-b77f-40fb00d57fe0,osweb,0,color,osweb,,2,3,4,1,osweb,2.1.0,https://jatos.mindprobe.eu,1,706,1266,1,1,1,0,0,0,1,0,c,red,a,space,2,c,cross,5407,11549,5042,5407,2,osweb,7,7,7,7,672,1280,24,720,24,0,0,1280,0,0,1716986131078,star,cross,triangle,circle,1024,2,48000,-16,experiment,,1,odd,Win32,140,54239,59655,53689,49656,60168,29627,41190,54240,54229,54229,60167,Wisconsin Card Sorting Test,1,9372,2,1024
1,0,67,67,5267,5267,#3d3846,Mozilla,Netscape,"5.0 (Windows NT 10.0; Win64; x64) AppleWebKit/537.36 (KHTML, like Gecko) Chrome/125.0.0.0 Safari/537.36",osweb,osweb,0,green,yellow,red,blue,osweb,1,2,1,b,0,2,2,0,0,2,0,0,2,0,0,0,0,0,0,0,2,2,2,2,2,0,0,29-05-24,29-05-24,15:35:24,Wed May 29 2024 15:35:24 GMT+0300 (Itä-Euroopan kesäaika),The main experiment item,1.5,False,0,0,C:\Users\maalt\OneDrive - Universität Wien\Dokumente\Uni\Psychologie\8. Semester\Bachelorarbeit\Experimente\Winsconsin\osweb-version,0,0,0,False,mono,False,18,no,white,no,no,768,720,1280,1,1,527063,3.8.6,47c87f94-a82d-0636-b77f-40fb00d57fe0,osweb,0,color,osweb,,1,2,3,4,osweb,2.1.0,https://jatos.mindprobe.eu,1,706,1266,1,1,1,0,0,0,1,0,b,yellow,a,space,1,b,triangle,6429,11549,5042,6429,2,osweb,7,7,7,7,672,1280,24,720,24,0,0,1280,0,0,1716986131078,cross,circle,triangle,star,1024,2,48000,-16,experiment,,1,odd,Win32,140,60218,66655,53689,49656,67170,29627,41190,60218,60205,60205,67169,Wisconsin Card Sorting Test,2,15801,3,1024
1,0,75,75,4356,4356,#3d3846,Mozilla,Netscape,"5.0 (Windows NT 10.0; Win64; x64) AppleWebKit/537.36 (KHTML, like Gecko) Chrome/125.0.0.0 Safari/537.36",osweb,osweb,0,green,blue,red,yellow,osweb,1,3,1,b,0,3,3,0,0,3,0,0,3,0,0,0,0,0,0,0,3,3,3,3,3,0,0,29-05-24,29-05-24,15:35:24,Wed May 29 2024 15:35:24 GMT+0300 (Itä-Euroopan kesäaika),The main experiment item,1.5,False,0,0,C:\Users\maalt\OneDrive - Universität Wien\Dokumente\Uni\Psychologie\8. Semester\Bachelorarbeit\Experimente\Winsconsin\osweb-version,0,0,0,False,mono,False,18,no,white,no,no,768,720,1280,1,1,527063,3.8.6,47c87f94-a82d-0636-b77f-40fb00d57fe0,osweb,0,color,osweb,,1,4,2,3,osweb,2.1.0,https://jatos.mindprobe.eu,1,706,1266,1,1,1,0,0,0,1,0,b,blue,a,space,2,b,circle,1622,11549,5042,1622,2,osweb,7,7,7,7,672,1280,24,720,24,0,0,1280,0,0,1716986131078,circle,cross,triangle,star,1024,2,48000,-16,experiment,,1,odd,Win32,140,67213,68855,53689,49656,69366,29627,41190,67214,67202,67202,69366,Wisconsin Card Sorting Test,3,17423,4,1024
1,0,80,80,3865,3865,#3d3846,Mozilla,Netscape,"5.0 (Windows NT 10.0; Win64; x64) AppleWebKit/537.36 (KHTML, like Gecko) Chrome/125.0.0.0 Safari/537.36",osweb,osweb,0,green,red,blue,yellow,osweb,1,4,1,c,0,4,4,0,0,4,0,0,4,0,0,0,0,0,0,0,4,4,4,4,4,0,0,29-05-24,29-05-24,15:35:24,Wed May 29 2024 15:35:24 GMT+0300 (Itä-Euroopan kesäaika),The main experiment item,1.5,False,0,0,C:\Users\maalt\OneDrive - Universität Wien\Dokumente\Uni\Psychologie\8. Semester\Bachelorarbeit\Experimente\Winsconsin\osweb-version,0,0,0,False,mono,False,18,no,white,no,no,768,720,1280,1,1,527063,3.8.6,47c87f94-a82d-0636-b77f-40fb00d57fe0,osweb,0,color,osweb,,3,2,4,1,osweb,2.1.0,https://jatos.mindprobe.eu,1,706,1266,1,1,1,0,0,0,1,0,c,blue,a,space,2,c,circle,1902,11549,5042,1902,2,osweb,7,7,7,7,672,1280,24,720,24,0,0,1280,0,0,1716986131078,circle,star,cross,triangle,1024,2,48000,-16,experiment,,1,odd,Win32,140,69396,71300,53689,49656,71816,29627,41190,69396,69390,69390,71816,Wisconsin Card Sorting Test,4,19325,5,1024
1,0,83,83,3638,3638,#3d3846,Mozilla,Netscape,"5.0 (Windows NT 10.0; Win64; x64) AppleWebKit/537.36 (KHTML, like Gecko) Chrome/125.0.0.0 Safari/537.36",osweb,osweb,0,green,red,blue,yellow,osweb,1,0,1,a,0,5,5,0,0,5,0,0,5,0,0,0,0,0,0,0,5,5,5,5,5,0,0,29-05-24,29-05-24,15:35:24,Wed May 29 2024 15:35:24 GMT+0300 (Itä-Euroopan kesäaika),The main experiment item,1.5,False,0,0,C:\Users\maalt\OneDrive - Universität Wien\Dokumente\Uni\Psychologie\8. Semester\Bachelorarbeit\Experimente\Winsconsin\osweb-version,0,0,0,False,mono,False,18,no,white,no,no,768,720,1280,1,1,527063,3.8.6,47c87f94-a82d-0636-b77f-40fb00d57fe0,osweb,0,shape,osweb,,3,1,4,2,osweb,2.1.0,https://jatos.mindprobe.eu,1,706,1266,1,1,0,1,0,0,1,0,a,green,a,space,2,a,circle,2500,11549,5042,2500,2,osweb,7,7,7,7,672,1280,24,720,24,0,0,1280,0,0,1716986131078,cross,circle,star,triangle,1024,2,48000,-16,experiment,,1,odd,Win32,140,71850,74366,53689,49656,74882,29627,41190,71850,71840,71840,74881,Wisconsin Card Sorting Test,5,21825,6,1024
1,0,71,71,3383,3383,#3d3846,Mozilla,Netscape,"5.0 (Windows NT 10.0; Win64; x64) AppleWebKit/537.36 (KHTML, like Gecko) Chrome/125.0.0.0 Safari/537.36",osweb,osweb,0,red,blue,green,yellow,osweb,0,0,0,b,0,6,6,0,0,6,0,0,6,0,0,0,0,0,0,0,6,6,6,6,6,0,0,29-05-24,29-05-24,15:35:24,Wed May 29 2024 15:35:24 GMT+0300 (Itä-Euroopan kesäaika),The main experiment item,1.5,False,0,0,C:\Users\maalt\OneDrive - Universität Wien\Dokumente\Uni\Psychologie\8. Semester\Bachelorarbeit\Experimente\Winsconsin\osweb-version,0,0,0,False,mono,False,18,no,white,no,no,768,720,1280,1,1,527063,3.8.6,47c87f94-a82d-0636-b77f-40fb00d57fe0,osweb,0,shape,osweb,,4,3,2,1,osweb,2.1.0,https://jatos.mindprobe.eu,1,706,1266,1,1,1,0,0,0,1,0,a,red,a,space,2,a,star,1853,11549,5042,1853,2,osweb,7,7,7,7,672,1280,24,720,24,0,0,1280,0,0,1716986131078,cross,star,circle,triangle,1024,2,48000,-16,experiment,,1,odd,Win32,140,74934,74366,76803,49656,77316,29627,41190,74935,74930,74930,77315,Wisconsin Card Sorting Test,5,23678,7,1024
1,0,63,63,3542,3542,#3d3846,Mozilla,Netscape,"5.0 (Windows NT 10.0; Win64; x64) AppleWebKit/537.36 (KHTML, like Gecko) Chrome/125.0.0.0 Safari/537.36",osweb,osweb,0,blue,yellow,green,red,osweb,0,0,0,b,0,7,7,0,0,7,0,0,7,0,0,0,0,0,0,0,7,7,7,7,7,0,0,29-05-24,29-05-24,15:35:24,Wed May 29 2024 15:35:24 GMT+0300 (Itä-Euroopan kesäaika),The main experiment item,1.5,False,0,0,C:\Users\maalt\OneDrive - Universität Wien\Dokumente\Uni\Psychologie\8. Semester\Bachelorarbeit\Experimente\Winsconsin\osweb-version,0,0,0,False,mono,False,18,no,white,no,no,768,720,1280,1,1,527063,3.8.6,47c87f94-a82d-0636-b77f-40fb00d57fe0,osweb,0,shape,osweb,,4,2,1,3,osweb,2.1.0,https://jatos.mindprobe.eu,1,706,1266,0,1,1,1,0,0,1,0,d,green,a,space,3,d,circle,4654,11549,5042,4654,2,osweb,7,7,7,7,672,1280,24,720,24,0,0,1280,0,0,1716986131078,star,circle,cross,triangle,1024,2,48000,-16,experiment,,1,odd,Win32,140,77341,74366,81998,49656,82515,29627,41190,77342,77339,77340,82514,Wisconsin Card Sorting Test,5,28332,8,1024
1,0,56,56,3968,3968,#3d3846,Mozilla,Netscape,"5.0 (Windows NT 10.0; Win64; x64) AppleWebKit/537.36 (KHTML, like Gecko) Chrome/125.0.0.0 Safari/537.36",osweb,osweb,0,red,green,yellow,blue,osweb,0,0,0,b,0,8,8,0,0,8,0,0,8,0,0,0,0,0,0,0,8,8,8,8,8,0,0,29-05-24,29-05-24,15:35:24,Wed May 29 2024 15:35:24 GMT+0300 (Itä-Euroopan kesäaika),The main experiment item,1.5,False,0,0,C:\Users\maalt\OneDrive - Universität Wien\Dokumente\Uni\Psychologie\8. Semester\Bachelorarbeit\Experimente\Winsconsin\osweb-version,0,0,0,False,mono,False,18,no,white,no,no,768,720,1280,1,1,527063,3.8.6,47c87f94-a82d-0636-b77f-40fb00d57fe0,osweb,0,shape,osweb,,1,4,3,2,osweb,2.1.0,https://jatos.mindprobe.eu,1,706,1266,0,1,1,1,0,0,1,0,c,blue,a,space,3,c,circle,7376,11549,5042,7376,2,osweb,7,7,7,7,672,1280,24,720,24,0,0,1280,0,0,1716986131078,triangle,circle,star,cross,1024,2,48000,-16,experiment,,1,odd,Win32,140,82551,74366,89931,49656,90447,29627,41190,82551,82541,82542,90446,Wisconsin Card Sorting Test,5,35708,9,1024
1,0,50,50,3741,3741,#3d3846,Mozilla,Netscape,"5.0 (Windows NT 10.0; Win64; x64) AppleWebKit/537.36 (KHTML, like Gecko) Chrome/125.0.0.0 Safari/537.36",osweb,osweb,0,blue,green,yellow,red,osweb,0,0,0,d,0,9,9,0,0,9,0,0,9,0,0,0,0,0,0,0,9,9,9,9,9,0,0,29-05-24,29-05-24,15:35:24,Wed May 29 2024 15:35:24 GMT+0300 (Itä-Euroopan kesäaika),The main experiment item,1.5,False,0,0,C:\Users\maalt\OneDrive - Universität Wien\Dokumente\Uni\Psychologie\8. Semester\Bachelorarbeit\Experimente\Winsconsin\osweb-version,0,0,0,False,mono,False,18,no,white,no,no,768,720,1280,1,1,527063,3.8.6,47c87f94-a82d-0636-b77f-40fb00d57fe0,osweb,0,shape,osweb,,4,2,3,1,osweb,2.1.0,https://jatos.mindprobe.eu,1,706,1266,1,0,1,1,0,0,1,0,a,yellow,a,space,4,a,star,1697,11549,5042,1697,2,osweb,7,7,7,7,672,1280,24,720,24,0,0,1280,0,0,1716986131078,cross,triangle,circle,star,1024,2,48000,-16,experiment,,1,odd,Win32,140,90487,74366,92197,49656,92713,29627,41190,90487,90474,90474,92713,Wisconsin Card Sorting Test,5,37405,10,1024
1,0,55,55,3703,3703,#3d3846,Mozilla,Netscape,"5.0 (Windows NT 10.0; Win64; x64) AppleWebKit/537.36 (KHTML, like Gecko) Chrome/125.0.0.0 Safari/537.36",osweb,osweb,0,blue,yellow,red,green,osweb,1,1,1,c,0,10,10,0,0,10,0,0,10,0,0,0,0,0,0,0,10,10,10,10,10,0,0,29-05-24,29-05-24,15:35:24,Wed May 29 2024 15:35:24 GMT+0300 (Itä-Euroopan kesäaika),The main experiment item,1.5,False,0,0,C:\Users\maalt\OneDrive - Universität Wien\Dokumente\Uni\Psychologie\8. Semester\Bachelorarbeit\Experimente\Winsconsin\osweb-version,0,0,0,False,mono,False,18,no,white,no,no,768,720,1280,1,1,527063,3.8.6,47c87f94-a82d-0636-b77f-40fb00d57fe0,osweb,0,shape,osweb,,4,2,1,3,osweb,2.1.0,https://jatos.mindprobe.eu,1,706,1266,1,1,1,0,0,0,1,0,c,yellow,a,space,4,c,star,3325,11549,5042,3325,2,osweb,7,7,7,7,672,1280,24,720,24,0,0,1280,0,0,1716986131078,triangle,circle,star,cross,1024,2,48000,-16,experiment,,1,odd,Win32,140,92747,96080,92197,49656,96596,29627,41190,92748,92743,92743,96596,Wisconsin Card Sorting Test,6,40730,11,1024
1,0,58,58,3511,3511,#3d3846,Mozilla,Netscape,"5.0 (Windows NT 10.0; Win64; x64) AppleWebKit/537.36 (KHTML, like Gecko) Chrome/125.0.0.0 Safari/537.36",osweb,osweb,0,red,blue,green,yellow,osweb,1,2,1,c,0,11,11,0,0,11,0,0,11,0,0,0,0,0,0,0,11,11,11,11,11,0,0,29-05-24,29-05-24,15:35:24,Wed May 29 2024 15:35:24 GMT+0300 (Itä-Euroopan kesäaika),The main experiment item,1.5,False,0,0,C:\Users\maalt\OneDrive - Universität Wien\Dokumente\Uni\Psychologie\8. Semester\Bachelorarbeit\Experimente\Winsconsin\osweb-version,0,0,0,False,mono,False,18,no,white,no,no,768,720,1280,1,1,527063,3.8.6,47c87f94-a82d-0636-b77f-40fb00d57fe0,osweb,0,shape,osweb,,1,4,2,3,osweb,2.1.0,https://jatos.mindprobe.eu,1,706,1266,1,0,1,1,0,0,1,0,c,red,a,space,3,c,cross,1406,11549,5042,1406,2,osweb,7,7,7,7,672,1280,24,720,24,0,0,1280,0,0,1716986131078,triangle,circle,cross,star,1024,2,48000,-16,experiment,,1,odd,Win32,140,96628,98045,92197,49656,98563,29627,41190,96629,96620,96620,98562,Wisconsin Card Sorting Test,7,42136,12,1024
1,0,62,62,3380,3380,#3d3846,Mozilla,Netscape,"5.0 (Windows NT 10.0; Win64; x64) AppleWebKit/537.36 (KHTML, like Gecko) Chrome/125.0.0.0 Safari/537.36",osweb,osweb,0,red,blue,yellow,green,osweb,1,3,1,a,0,12,12,0,0,12,0,0,12,0,0,0,0,0,0,0,12,12,12,12,12,0,0,29-05-24,29-05-24,15:35:24,Wed May 29 2024 15:35:24 GMT+0300 (Itä-Euroopan kesäaika),The main experiment item,1.5,False,0,0,C:\Users\maalt\OneDrive - Universität Wien\Dokumente\Uni\Psychologie\8. Semester\Bachelorarbeit\Experimente\Winsconsin\osweb-version,0,0,0,False,mono,False,18,no,white,no,no,768,720,1280,1,1,527063,3.8.6,47c87f94-a82d-0636-b77f-40fb00d57fe0,osweb,0,shape,osweb,,1,2,4,3,osweb,2.1.0,https://jatos.mindprobe.eu,1,706,1266,1,0,1,1,0,0,1,0,a,yellow,a,space,3,a,circle,1802,11549,5042,1802,2,osweb,7,7,7,7,672,1280,24,720,24,0,0,1280,0,0,1716986131078,circle,star,triangle,cross,1024,2,48000,-16,experiment,,1,odd,Win32,140,98591,100395,92197,49656,100900,29627,41190,98591,98586,98586,100899,Wisconsin Card Sorting Test,8,43938,13,1024
1,0,64,64,3259,3259,#3d3846,Mozilla,Netscape,"5.0 (Windows NT 10.0; Win64; x64) AppleWebKit/537.36 (KHTML, like Gecko) Chrome/125.0.0.0 Safari/537.36",osweb,osweb,0,green,yellow,red,blue,osweb,1,4,1,a,0,13,13,0,0,13,0,0,13,0,0,0,0,0,0,0,13,13,13,13,13,0,0,29-05-24,29-05-24,15:35:24,Wed May 29 2024 15:35:24 GMT+0300 (Itä-Euroopan kesäaika),The main experiment item,1.5,False,0,0,C:\Users\maalt\OneDrive - Universität Wien\Dokumente\Uni\Psychologie\8. Semester\Bachelorarbeit\Experimente\Winsconsin\osweb-version,0,0,0,False,mono,False,18,no,white,no,no,768,720,1280,1,1,527063,3.8.6,47c87f94-a82d-0636-b77f-40fb00d57fe0,osweb,0,shape,osweb,,2,1,4,3,osweb,2.1.0,https://jatos.mindprobe.eu,1,706,1266,1,1,0,1,0,0,1,0,a,yellow,a,space,3,a,triangle,1691,11549,5042,1691,2,osweb,7,7,7,7,672,1280,24,720,24,0,0,1280,0,0,1716986131078,triangle,star,circle,cross,1024,2,48000,-16,experiment,,1,odd,Win32,140,100960,102661,92197,49656,103179,29627,41190,100961,100952,100953,103178,Wisconsin Card Sorting Test,9,45629,14,1024
1,0,67,67,3197,3197,#3d3846,Mozilla,Netscape,"5.0 (Windows NT 10.0; Win64; x64) AppleWebKit/537.36 (KHTML, like Gecko) Chrome/125.0.0.0 Safari/537.36",osweb,osweb,0,red,yellow,green,blue,osweb,1,0,1,d,0,14,14,0,0,14,0,0,14,0,0,0,0,0,0,0,14,14,14,14,14,0,0,29-05-24,29-05-24,15:35:24,Wed May 29 2024 15:35:24 GMT+0300 (Itä-Euroopan kesäaika),The main experiment item,1.5,False,0,0,C:\Users\maalt\OneDrive - Universität Wien\Dokumente\Uni\Psychologie\8. Semester\Bachelorarbeit\Experimente\Winsconsin\osweb-version,0,0,0,False,mono,False,18,no,white,no,no,768,720,1280,1,1,527063,3.8.6,47c87f94-a82d-0636-b77f-40fb00d57fe0,osweb,0,color,osweb,,1,3,2,4,osweb,2.1.0,https://jatos.mindprobe.eu,1,706,1266,0,1,1,1,0,0,1,0,d,green,a,space,3,d,star,2332,11549,5042,2332,2,osweb,7,7,7,7,672,1280,24,720,24,0,0,1280,0,0,1716986131078,cross,triangle,circle,star,1024,2,48000,-16,experiment,,1,odd,Win32,140,103216,105562,92197,49656,106083,29627,41190,103217,103211,103212,106082,Wisconsin Card Sorting Test,10,47961,15,1024
1,0,63,63,3116,3116,#3d3846,Mozilla,Netscape,"5.0 (Windows NT 10.0; Win64; x64) AppleWebKit/537.36 (KHTML, like Gecko) Chrome/125.0.0.0 Safari/537.36",osweb,osweb,0,green,blue,red,yellow,osweb,0,0,0,b,0,15,15,0,0,15,0,0,15,0,0,0,0,0,0,0,15,15,15,15,15,0,0,29-05-24,29-05-24,15:35:24,Wed May 29 2024 15:35:24 GMT+0300 (Itä-Euroopan kesäaika),The main experiment item,1.5,False,0,0,C:\Users\maalt\OneDrive - Universität Wien\Dokumente\Uni\Psychologie\8. Semester\Bachelorarbeit\Experimente\Winsconsin\osweb-version,0,0,0,False,mono,False,18,no,white,no,no,768,720,1280,1,1,527063,3.8.6,47c87f94-a82d-0636-b77f-40fb00d57fe0,osweb,0,color,osweb,,4,1,3,2,osweb,2.1.0,https://jatos.mindprobe.eu,1,706,1266,0,1,1,1,0,0,1,0,c,blue,a,space,3,c,triangle,1901,11549,5042,1901,2,osweb,7,7,7,7,672,1280,24,720,24,0,0,1280,0,0,1716986131078,circle,cross,star,triangle,1024,2,48000,-16,experiment,,1,odd,Win32,140,106114,105562,108028,49656,108548,29627,41190,106115,106107,106107,108548,Wisconsin Card Sorting Test,10,49862,16,1024
1,0,59,59,3143,3143,#3d3846,Mozilla,Netscape,"5.0 (Windows NT 10.0; Win64; x64) AppleWebKit/537.36 (KHTML, like Gecko) Chrome/125.0.0.0 Safari/537.36",osweb,osweb,0,blue,red,yellow,green,osweb,0,0,0,d,0,16,16,0,0,16,0,0,16,0,0,0,0,0,0,0,16,16,16,16,16,0,0,29-05-24,29-05-24,15:35:24,Wed May 29 2024 15:35:24 GMT+0300 (Itä-Euroopan kesäaika),The main experiment item,1.5,False,0,0,C:\Users\maalt\OneDrive - Universität Wien\Dokumente\Uni\Psychologie\8. Semester\Bachelorarbeit\Experimente\Winsconsin\osweb-version,0,0,0,False,mono,False,18,no,white,no,no,768,720,1280,1,1,527063,3.8.6,47c87f94-a82d-0636-b77f-40fb00d57fe0,osweb,0,color,osweb,,2,4,3,1,osweb,2.1.0,https://jatos.mindprobe.eu,1,706,1266,1,1,0,1,0,0,1,0,b,green,a,space,4,b,triangle,3568,11549,5042,3568,2,osweb,7,7,7,7,672,1280,24,720,24,0,0,1280,0,0,1716986131078,triangle,star,circle,cross,1024,2,48000,-16,experiment,,1,odd,Win32,140,108584,105562,112161,49656,112677,29627,41190,108585,108579,108579,112676,Wisconsin Card Sorting Test,10,53430,17,1024
1,0,56,56,3213,3213,#3d3846,Mozilla,Netscape,"5.0 (Windows NT 10.0; Win64; x64) AppleWebKit/537.36 (KHTML, like Gecko) Chrome/125.0.0.0 Safari/537.36",osweb,osweb,0,red,green,yellow,blue,osweb,0,0,0,c,0,17,17,0,0,17,0,0,17,0,0,0,0,0,0,0,17,17,17,17,17,0,0,29-05-24,29-05-24,15:35:24,Wed May 29 2024 15:35:24 GMT+0300 (Itä-Euroopan kesäaika),The main experiment item,1.5,False,0,0,C:\Users\maalt\OneDrive - Universität Wien\Dokumente\Uni\Psychologie\8. Semester\Bachelorarbeit\Experimente\Winsconsin\osweb-version,0,0,0,False,mono,False,18,no,white,no,no,768,720,1280,1,1,527063,3.8.6,47c87f94-a82d-0636-b77f-40fb00d57fe0,osweb,0,color,osweb,,1,2,4,3,osweb,2.1.0,https://jatos.mindprobe.eu,1,706,1266,1,0,1,1,0,0,1,0,d,yellow,a,space,3,d,star,4409,11549,5042,4409,2,osweb,7,7,7,7,672,1280,24,720,24,0,0,1280,0,0,1716986131078,star,triangle,circle,cross,1024,2,48000,-16,experiment,,1,odd,Win32,140,112713,105562,117131,49656,117643,29627,41190,112714,112709,112709,117642,Wisconsin Card Sorting Test,10,57839,18,1024
1,0,53,53,3223,3223,#3d3846,Mozilla,Netscape,"5.0 (Windows NT 10.0; Win64; x64) AppleWebKit/537.36 (KHTML, like Gecko) Chrome/125.0.0.0 Safari/537.36",osweb,osweb,0,green,blue,yellow,red,osweb,0,0,0,d,0,18,18,0,0,18,0,0,18,0,0,0,0,0,0,0,18,18,18,18,18,0,0,29-05-24,29-05-24,15:35:24,Wed May 29 2024 15:35:24 GMT+0300 (Itä-Euroopan kesäaika),The main experiment item,1.5,False,0,0,C:\Users\maalt\OneDrive - Universität Wien\Dokumente\Uni\Psychologie\8. Semester\Bachelorarbeit\Experimente\Winsconsin\osweb-version,0,0,0,False,mono,False,18,no,white,no,no,768,720,1280,1,1,527063,3.8.6,47c87f94-a82d-0636-b77f-40fb00d57fe0,osweb,0,color,osweb,,2,3,1,4,osweb,2.1.0,https://jatos.mindprobe.eu,1,706,1266,0,1,1,1,0,0,1,0,c,red,a,space,3,c,star,3393,11549,5042,3393,2,osweb,7,7,7,7,672,1280,24,720,24,0,0,1280,0,0,1716986131078,cross,circle,star,triangle,1024,2,48000,-16,experiment,,1,odd,Win32,140,117672,105562,121076,49656,121582,29627,41190,117673,117667,117667,121582,Wisconsin Card Sorting Test,10,61232,19,1024
1,0,50,50,3300,3300,#3d3846,Mozilla,Netscape,"5.0 (Windows NT 10.0; Win64; x64) AppleWebKit/537.36 (KHTML, like Gecko) Chrome/125.0.0.0 Safari/537.36",osweb,osweb,0,yellow,blue,red,green,osweb,0,0,0,d,0,19,19,0,0,19,0,0,19,0,0,0,0,0,0,0,19,19,19,19,19,0,0,29-05-24,29-05-24,15:35:24,Wed May 29 2024 15:35:24 GMT+0300 (Itä-Euroopan kesäaika),The main experiment item,1.5,False,0,0,C:\Users\maalt\OneDrive - Universität Wien\Dokumente\Uni\Psychologie\8. Semester\Bachelorarbeit\Experimente\Winsconsin\osweb-version,0,0,0,False,mono,False,18,no,white,no,no,768,720,1280,1,1,527063,3.8.6,47c87f94-a82d-0636-b77f-40fb00d57fe0,osweb,0,color,osweb,,4,2,1,3,osweb,2.1.0,https://jatos.mindprobe.eu,1,706,1266,1,0,1,1,0,0,1,0,a,green,a,space,4,a,cross,4764,11549,5042,4764,2,osweb,7,7,7,7,672,1280,24,720,24,0,0,1280,0,0,1716986131078,circle,star,cross,triangle,1024,2,48000,-16,experiment,,1,odd,Win32,140,121617,105562,126392,49656,126908,29627,41190,121618,121612,121612,126907,Wisconsin Card Sorting Test,10,65996,20,1024
1,0,48,48,3246,3246,#3d3846,Mozilla,Netscape,"5.0 (Windows NT 10.0; Win64; x64) AppleWebKit/537.36 (KHTML, like Gecko) Chrome/125.0.0.0 Safari/537.36",osweb,osweb,0,red,blue,green,yellow,osweb,0,0,0,d,0,20,20,0,0,20,0,0,20,0,0,0,0,0,0,0,20,20,20,20,20,0,0,29-05-24,29-05-24,15:35:24,Wed May 29 2024 15:35:24 GMT+0300 (Itä-Euroopan kesäaika),The main experiment item,1.5,False,0,0,C:\Users\maalt\OneDrive - Universität Wien\Dokumente\Uni\Psychologie\8. Semester\Bachelorarbeit\Experimente\Winsconsin\osweb-version,0,0,0,False,mono,False,18,no,white,no,no,768,720,1280,1,1,527063,3.8.6,47c87f94-a82d-0636-b77f-40fb00d57fe0,osweb,0,color,osweb,,2,1,4,3,osweb,2.1.0,https://jatos.mindprobe.eu,1,706,1266,1,1,0,1,0,0,1,0,b,yellow,a,space,1,b,cross,2167,11549,5042,2167,2,osweb,7,7,7,7,672,1280,24,720,24,0,0,1280,0,0,1716986131078,cross,triangle,star,circle,1024,2,48000,-16,experiment,,1,odd,Win32,140,126971,105562,129141,49656,129658,29627,41190,126972,126960,126960,129658,Wisconsin Card Sorting Test,10,68163,21,1024
1,0,45,45,3435,3435,#3d3846,Mozilla,Netscape,"5.0 (Windows NT 10.0; Win64; x64) AppleWebKit/537.36 (KHTML, like Gecko) Chrome/125.0.0.0 Safari/537.36",osweb,osweb,0,yellow,green,red,blue,osweb,0,0,0,d,0,21,21,0,0,21,0,0,21,0,0,0,0,0,0,0,21,21,21,21,21,0,0,29-05-24,29-05-24,15:35:24,Wed May 29 2024 15:35:24 GMT+0300 (Itä-Euroopan kesäaika),The main experiment item,1.5,False,0,0,C:\Users\maalt\OneDrive - Universität Wien\Dokumente\Uni\Psychologie\8. Semester\Bachelorarbeit\Experimente\Winsconsin\osweb-version,0,0,0,False,mono,False,18,no,white,no,no,768,720,1280,1,1,527063,3.8.6,47c87f94-a82d-0636-b77f-40fb00d57fe0,osweb,0,color,osweb,,3,4,2,1,osweb,2.1.0,https://jatos.mindprobe.eu,1,706,1266,1,1,0,1,0,0,1,0,c,blue,a,space,3,c,circle,7400,11549,5042,7400,2,osweb,7,7,7,7,672,1280,24,720,24,0,0,1280,0,0,1716986131078,star,circle,cross,triangle,1024,2,48000,-16,experiment,,1,odd,Win32,140,129685,105562,137091,49656,137606,29627,41190,129686,129684,129684,137606,Wisconsin Card Sorting Test,10,75563,22,1024
1,0,43,43,3440,3440,#3d3846,Mozilla,Netscape,"5.0 (Windows NT 10.0; Win64; x64) AppleWebKit/537.36 (KHTML, like Gecko) Chrome/125.0.0.0 Safari/537.36",osweb,osweb,0,red,yellow,green,blue,osweb,0,0,0,a,0,22,22,0,0,22,0,0,22,0,0,0,0,0,0,0,22,22,22,22,22,0,0,29-05-24,29-05-24,15:35:24,Wed May 29 2024 15:35:24 GMT+0300 (Itä-Euroopan kesäaika),The main experiment item,1.5,False,0,0,C:\Users\maalt\OneDrive - Universität Wien\Dokumente\Uni\Psychologie\8. Semester\Bachelorarbeit\Experimente\Winsconsin\osweb-version,0,0,0,False,mono,False,18,no,white,no,no,768,720,1280,1,1,527063,3.8.6,47c87f94-a82d-0636-b77f-40fb00d57fe0,osweb,0,color,osweb,,2,1,3,4,osweb,2.1.0,https://jatos.mindprobe.eu,1,706,1266,1,0,1,1,0,0,1,0,c,red,a,space,4,c,cross,3562,11549,5042,3562,2,osweb,7,7,7,7,672,1280,24,720,24,0,0,1280,0,0,1716986131078,star,circle,cross,triangle,1024,2,48000,-16,experiment,,1,odd,Win32,140,137663,105562,141240,49656,141756,29627,41190,137664,137653,137656,141755,Wisconsin Card Sorting Test,10,79125,23,1024
1,0,42,42,3377,3377,#3d3846,Mozilla,Netscape,"5.0 (Windows NT 10.0; Win64; x64) AppleWebKit/537.36 (KHTML, like Gecko) Chrome/125.0.0.0 Safari/537.36",osweb,osweb,0,green,yellow,red,blue,osweb,0,0,0,c,0,23,23,0,0,23,0,0,23,0,0,0,0,0,0,0,23,23,23,23,23,0,0,29-05-24,29-05-24,15:35:24,Wed May 29 2024 15:35:24 GMT+0300 (Itä-Euroopan kesäaika),The main experiment item,1.5,False,0,0,C:\Users\maalt\OneDrive - Universität Wien\Dokumente\Uni\Psychologie\8. Semester\Bachelorarbeit\Experimente\Winsconsin\osweb-version,0,0,0,False,mono,False,18,no,white,no,no,768,720,1280,1,1,527063,3.8.6,47c87f94-a82d-0636-b77f-40fb00d57fe0,osweb,0,color,osweb,,4,3,1,2,osweb,2.1.0,https://jatos.mindprobe.eu,1,706,1266,1,0,1,1,0,0,1,0,d,red,a,space,2,d,triangle,1917,11549,5042,1917,2,osweb,7,7,7,7,672,1280,24,720,24,0,0,1280,0,0,1716986131078,triangle,cross,star,circle,1024,2,48000,-16,experiment,,1,odd,Win32,140,141791,105562,143722,49656,144244,29627,41190,141792,141784,141784,144244,Wisconsin Card Sorting Test,10,81042,24,1024
1,0,40,40,3332,3332,#3d3846,Mozilla,Netscape,"5.0 (Windows NT 10.0; Win64; x64) AppleWebKit/537.36 (KHTML, like Gecko) Chrome/125.0.0.0 Safari/537.36",osweb,osweb,0,green,yellow,red,blue,osweb,0,0,0,c,0,24,24,0,0,24,0,0,24,0,0,0,0,0,0,0,24,24,24,24,24,0,0,29-05-24,29-05-24,15:35:24,Wed May 29 2024 15:35:24 GMT+0300 (Itä-Euroopan kesäaika),The main experiment item,1.5,False,0,0,C:\Users\maalt\OneDrive - Universität Wien\Dokumente\Uni\Psychologie\8. Semester\Bachelorarbeit\Experimente\Winsconsin\osweb-version,0,0,0,False,mono,False,18,no,white,no,no,768,720,1280,1,1,527063,3.8.6,47c87f94-a82d-0636-b77f-40fb00d57fe0,osweb,0,color,osweb,,3,1,2,4,osweb,2.1.0,https://jatos.mindprobe.eu,1,706,1266,1,1,1,0,0,0,1,0,b,red,a,space,1,b,circle,2252,11549,5042,2252,2,osweb,7,7,7,7,672,1280,24,720,24,0,0,1280,0,0,1716986131078,circle,star,cross,triangle,1024,2,48000,-16,experiment,,1,odd,Win32,140,144298,105562,146561,49656,147072,29627,41190,144298,144278,144278,147072,Wisconsin Card Sorting Test,10,83294,25,1024
1,0,38,38,3348,3348,#3d3846,Mozilla,Netscape,"5.0 (Windows NT 10.0; Win64; x64) AppleWebKit/537.36 (KHTML, like Gecko) Chrome/125.0.0.0 Safari/537.36",osweb,osweb,0,yellow,red,green,blue,osweb,0,0,0,d,0,25,25,0,0,25,0,0,25,0,0,0,0,0,0,0,25,25,25,25,25,0,0,29-05-24,29-05-24,15:35:24,Wed May 29 2024 15:35:24 GMT+0300 (Itä-Euroopan kesäaika),The main experiment item,1.5,False,0,0,C:\Users\maalt\OneDrive - Universität Wien\Dokumente\Uni\Psychologie\8. Semester\Bachelorarbeit\Experimente\Winsconsin\osweb-version,0,0,0,False,mono,False,18,no,white,no,no,768,720,1280,1,1,527063,3.8.6,47c87f94-a82d-0636-b77f-40fb00d57fe0,osweb,0,color,osweb,,3,4,1,2,osweb,2.1.0,https://jatos.mindprobe.eu,1,706,1266,1,1,0,1,0,0,1,0,a,blue,a,space,4,a,star,3762,11549,5042,3762,2,osweb,7,7,7,7,672,1280,24,720,24,0,0,1280,0,0,1716986131078,star,cross,circle,triangle,1024,2,48000,-16,experiment,,1,odd,Win32,140,147108,105562,150871,49656,151389,29627,41190,147108,147097,147098,151388,Wisconsin Card Sorting Test,10,87056,26,1024
1,0,41,41,3285,3285,#3d3846,Mozilla,Netscape,"5.0 (Windows NT 10.0; Win64; x64) AppleWebKit/537.36 (KHTML, like Gecko) Chrome/125.0.0.0 Safari/537.36",osweb,osweb,0,blue,yellow,green,red,osweb,1,1,1,d,0,26,26,0,0,26,0,0,26,0,0,0,0,0,0,0,26,26,26,26,26,0,0,29-05-24,29-05-24,15:35:24,Wed May 29 2024 15:35:24 GMT+0300 (Itä-Euroopan kesäaika),The main experiment item,1.5,False,0,0,C:\Users\maalt\OneDrive - Universität Wien\Dokumente\Uni\Psychologie\8. Semester\Bachelorarbeit\Experimente\Winsconsin\osweb-version,0,0,0,False,mono,False,18,no,white,no,no,768,720,1280,1,1,527063,3.8.6,47c87f94-a82d-0636-b77f-40fb00d57fe0,osweb,0,color,osweb,,4,3,2,1,osweb,2.1.0,https://jatos.mindprobe.eu,1,706,1266,1,1,0,1,0,0,1,0,d,red,a,space,3,d,cross,1640,11549,5042,1640,2,osweb,7,7,7,7,672,1280,24,720,24,0,0,1280,0,0,1716986131078,cross,circle,star,triangle,1024,2,48000,-16,experiment,,1,odd,Win32,140,151435,153088,150871,49656,153595,29627,41190,151436,151425,151425,153594,Wisconsin Card Sorting Test,11,88696,27,1024
1,0,43,43,3228,3228,#3d3846,Mozilla,Netscape,"5.0 (Windows NT 10.0; Win64; x64) AppleWebKit/537.36 (KHTML, like Gecko) Chrome/125.0.0.0 Safari/537.36",osweb,osweb,0,green,red,blue,yellow,osweb,1,2,1,b,0,27,27,0,0,27,0,0,27,0,0,0,0,0,0,0,27,27,27,27,27,0,0,29-05-24,29-05-24,15:35:24,Wed May 29 2024 15:35:24 GMT+0300 (Itä-Euroopan kesäaika),The main experiment item,1.5,False,0,0,C:\Users\maalt\OneDrive - Universität Wien\Dokumente\Uni\Psychologie\8. Semester\Bachelorarbeit\Experimente\Winsconsin\osweb-version,0,0,0,False,mono,False,18,no,white,no,no,768,720,1280,1,1,527063,3.8.6,47c87f94-a82d-0636-b77f-40fb00d57fe0,osweb,0,color,osweb,,3,2,1,4,osweb,2.1.0,https://jatos.mindprobe.eu,1,706,1266,0,1,1,1,0,0,1,0,b,red,a,space,1,b,circle,1699,11549,5042,1699,2,osweb,7,7,7,7,672,1280,24,720,24,0,0,1280,0,0,1716986131078,triangle,star,cross,circle,1024,2,48000,-16,experiment,,1,odd,Win32,140,153622,155322,150871,49656,155838,29627,41190,153622,153618,153618,155837,Wisconsin Card Sorting Test,12,90395,28,1024
1,0,45,45,3164,3164,#3d3846,Mozilla,Netscape,"5.0 (Windows NT 10.0; Win64; x64) AppleWebKit/537.36 (KHTML, like Gecko) Chrome/125.0.0.0 Safari/537.36",osweb,osweb,0,blue,green,yellow,red,osweb,1,3,1,c,0,28,28,0,0,28,0,0,28,0,0,0,0,0,0,0,28,28,28,28,28,0,0,29-05-24,29-05-24,15:35:24,Wed May 29 2024 15:35:24 GMT+0300 (Itä-Euroopan kesäaika),The main experiment item,1.5,False,0,0,C:\Users\maalt\OneDrive - Universität Wien\Dokumente\Uni\Psychologie\8. Semester\Bachelorarbeit\Experimente\Winsconsin\osweb-version,0,0,0,False,mono,False,18,no,white,no,no,768,720,1280,1,1,527063,3.8.6,47c87f94-a82d-0636-b77f-40fb00d57fe0,osweb,0,color,osweb,,1,2,3,4,osweb,2.1.0,https://jatos.mindprobe.eu,1,706,1266,1,1,1,0,0,0,1,0,c,yellow,a,space,2,c,circle,1361,11549,5042,1361,2,osweb,7,7,7,7,672,1280,24,720,24,0,0,1280,0,0,1716986131078,circle,star,cross,triangle,1024,2,48000,-16,experiment,,1,odd,Win32,140,155869,157238,150871,49656,157754,29627,41190,155870,155864,155864,157753,Wisconsin Card Sorting Test,13,91756,29,1024
1,0,47,47,3107,3107,#3d3846,Mozilla,Netscape,"5.0 (Windows NT 10.0; Win64; x64) AppleWebKit/537.36 (KHTML, like Gecko) Chrome/125.0.0.0 Safari/537.36",osweb,osweb,0,red,green,yellow,blue,osweb,1,4,1,a,0,29,29,0,0,29,0,0,29,0,0,0,0,0,0,0,29,29,29,29,29,0,0,29-05-24,29-05-24,15:35:24,Wed May 29 2024 15:35:24 GMT+0300 (Itä-Euroopan kesäaika),The main experiment item,1.5,False,0,0,C:\Users\maalt\OneDrive - Universität Wien\Dokumente\Uni\Psychologie\8. Semester\Bachelorarbeit\Experimente\Winsconsin\osweb-version,0,0,0,False,mono,False,18,no,white,no,no,768,720,1280,1,1,527063,3.8.6,47c87f94-a82d-0636-b77f-40fb00d57fe0,osweb,0,color,osweb,,3,4,1,2,osweb,2.1.0,https://jatos.mindprobe.eu,1,706,1266,1,1,1,0,0,0,1,0,a,red,a,space,1,a,circle,1455,11549,5042,1455,2,osweb,7,7,7,7,672,1280,24,720,24,0,0,1280,0,0,1716986131078,triangle,circle,cross,star,1024,2,48000,-16,experiment,,1,odd,Win32,140,157788,159254,150871,49656,159775,29627,41190,157788,157783,157783,159775,Wisconsin Card Sorting Test,14,93211,30,1024
1,0,48,48,3047,3047,#3d3846,Mozilla,Netscape,"5.0 (Windows NT 10.0; Win64; x64) AppleWebKit/537.36 (KHTML, like Gecko) Chrome/125.0.0.0 Safari/537.36",osweb,osweb,0,red,green,blue,yellow,osweb,1,0,1,c,0,30,30,0,0,30,0,0,30,0,0,0,0,0,0,0,30,30,30,30,30,0,0,29-05-24,29-05-24,15:35:24,Wed May 29 2024 15:35:24 GMT+0300 (Itä-Euroopan kesäaika),The main experiment item,1.5,False,0,0,C:\Users\maalt\OneDrive - Universität Wien\Dokumente\Uni\Psychologie\8. Semester\Bachelorarbeit\Experimente\Winsconsin\osweb-version,0,0,0,False,mono,False,18,no,white,no,no,768,720,1280,1,1,527063,3.8.6,47c87f94-a82d-0636-b77f-40fb00d57fe0,osweb,0,shape,osweb,,4,1,3,2,osweb,2.1.0,https://jatos.mindprobe.eu,1,706,1266,1,1,1,0,0,0,1,0,c,blue,a,space,4,c,cross,1241,11549,5042,1241,2,osweb,7,7,7,7,672,1280,24,720,24,0,0,1280,0,0,1716986131078,circle,cross,star,triangle,1024,2,48000,-16,experiment,,1,odd,Win32,140,159816,161070,150871,49656,161587,29627,41190,159817,159804,159804,161586,Wisconsin Card Sorting Test,15,94452,31,1024
