PERSISTENT,TEMPORARY,acc,accuracy,average_response_time,avg_rt,background,browser_codename,browser_name,browser_version,canvas_backend,clock_backend,closed,color1,color2,color3,color4,color_backend,correct,correct_in_a_row,correct_press_abcd,correct_response,count_block_loop,count_card_display,count_correct_feedback,count_experiment,count_goodbye,count_incorrect_feedback,count_init_matching_rule,count_instructions,count_logger,count_new_1_form_text_display,count_new_2_sketchpad,count_new_form_consent,count_new_form_text_display,count_new_inline_javascript,count_new_sketchpad,count_osweb,count_press_abcd,count_select_response_card,count_set_correct_response,count_trial_sequence,count_update_matching_rule,credentialless,crossOriginIsolated,date_startdate,date_startdateUTC,date_starttime,datetime,defaultStatus,defaultstatus,description,devicePixelRatio,disable_garbage_collection,experiment_debug,experiment_parameters,experiment_path,experiment_pilot,experiment_taskname,experiment_taskversion,font_bold,font_family,font_italic,font_size,font_underline,foreground,form_clicks,fullScreen,fullscreen,height,innerHeight,innerWidth,isBrowser,isSecureContext,jatosStudyResultId,jatosVersion,jatos_uuid,keyboard_backend,length,matching_rule,mouse_backend,mozInnerScreenX,mozInnerScreenY,name,number1,number2,number3,number4,offscreenBuffering,opensesame_codename,opensesame_version,origin,originAgentCluster,outerHeight,outerWidth,overlap1,overlap2,overlap3,overlap4,pageXOffset,pageYOffset,penwidth,repeat_cycle,response,response_color,response_new_2_sketchpad,response_new_sketchpad,response_number,response_press_abcd,response_shape,response_time,response_time_new_2_sketchpad,response_time_new_sketchpad,response_time_press_abcd,round_decimals,sampler_backend,screenLeft,screenTop,screenX,screenY,screen_availableHeight,screen_availableWidth,screen_colorDepth,screen_height,screen_pixelDepth,screen_screenX,screen_screenY,screen_width,scrollMaxX,scrollMaxY,scrollX,scrollY,sessionid,shape1,shape2,shape3,shape4,sound_buf_size,sound_channels,sound_freq,sound_sample_size,start,status,subject_nr,subject_parity,system_os,time_block_loop,time_card_display,time_correct_feedback,time_incorrect_feedback,time_init_matching_rule,time_logger,time_new_2_sketchpad,time_new_sketchpad,time_press_abcd,time_select_response_card,time_set_correct_response,time_update_matching_rule,title,total_correct,total_response_time,total_responses,width
1,0,100,100,2120,2120,#3d3846,Mozilla,Netscape,"5.0 (Windows NT 10.0; Win64; x64) AppleWebKit/537.36 (KHTML, like Gecko) Chrome/126.0.0.0 Safari/537.36 Edg/126.0.0.0",osweb,osweb,0,red,green,blue,yellow,osweb,1,1,1,d,0,0,0,0,0,0,0,0,0,0,0,0,0,0,0,0,0,0,0,0,0,0,0,15-06-24,15-06-24,13:47:25,Sat Jun 15 2024 13:47:25 GMT+0200 (Mitteleuropäische Sommerzeit),,,The main experiment item,1,False,0,0,C:\Users\maalt\OneDrive - Universität Wien\Dokumente\Uni\Psychologie\8. Semester\Bachelorarbeit\Experimente\Winsconsin\osweb-version,0,0,0,False,mono,False,18,no,white,no,,no,768,1080,1920,1,1,540541,3.9.1,a47ee561-4ea2-80d4-f47b-548d9201c9ec,osweb,0,shape,osweb,,,,3,4,1,2,,osweb,2.1.0,https://jatos.mindprobe.eu,1,1064,1904,1,0,1,1,0,0,1,0,d,red,d,space,1,d,triangle,2120,15380,10041,2120,2,osweb,8,8,8,8,1040,1920,24,1080,24,0,0,1920,,,0,0,1718441445590,circle,cross,star,triangle,1024,2,48000,-16,experiment,,1,odd,Win32,55,69755,71881,,69731,72390,39621,55003,69755,69749,69749,72389,Wisconsin Card Sorting Test,1,2120,1,1024
1,0,100,100,2527,2527,#3d3846,Mozilla,Netscape,"5.0 (Windows NT 10.0; Win64; x64) AppleWebKit/537.36 (KHTML, like Gecko) Chrome/126.0.0.0 Safari/537.36 Edg/126.0.0.0",osweb,osweb,0,blue,red,green,yellow,osweb,1,2,1,b,0,1,1,0,0,1,0,0,1,0,0,0,0,0,0,0,1,1,1,1,1,0,0,15-06-24,15-06-24,13:47:25,Sat Jun 15 2024 13:47:25 GMT+0200 (Mitteleuropäische Sommerzeit),,,The main experiment item,1,False,0,0,C:\Users\maalt\OneDrive - Universität Wien\Dokumente\Uni\Psychologie\8. Semester\Bachelorarbeit\Experimente\Winsconsin\osweb-version,0,0,0,False,mono,False,18,no,white,no,,no,768,1080,1920,1,1,540541,3.9.1,a47ee561-4ea2-80d4-f47b-548d9201c9ec,osweb,0,shape,osweb,,,,1,2,4,3,,osweb,2.1.0,https://jatos.mindprobe.eu,1,1064,1904,1,1,0,1,0,0,1,0,b,blue,d,space,3,b,circle,2933,15380,10041,2933,2,osweb,8,8,8,8,1040,1920,24,1080,24,0,0,1920,,,0,0,1718441445590,triangle,circle,star,cross,1024,2,48000,-16,experiment,,1,odd,Win32,55,72406,75342,,69731,75852,39621,55003,72406,72401,72401,75852,Wisconsin Card Sorting Test,2,5053,2,1024
1,0,100,100,2271,2271,#3d3846,Mozilla,Netscape,"5.0 (Windows NT 10.0; Win64; x64) AppleWebKit/537.36 (KHTML, like Gecko) Chrome/126.0.0.0 Safari/537.36 Edg/126.0.0.0",osweb,osweb,0,green,yellow,blue,red,osweb,1,3,1,b,0,2,2,0,0,2,0,0,2,0,0,0,0,0,0,0,2,2,2,2,2,0,0,15-06-24,15-06-24,13:47:25,Sat Jun 15 2024 13:47:25 GMT+0200 (Mitteleuropäische Sommerzeit),,,The main experiment item,1,False,0,0,C:\Users\maalt\OneDrive - Universität Wien\Dokumente\Uni\Psychologie\8. Semester\Bachelorarbeit\Experimente\Winsconsin\osweb-version,0,0,0,False,mono,False,18,no,white,no,,no,768,1080,1920,1,1,540541,3.9.1,a47ee561-4ea2-80d4-f47b-548d9201c9ec,osweb,0,shape,osweb,,,,1,2,4,3,,osweb,2.1.0,https://jatos.mindprobe.eu,1,1064,1904,1,1,1,0,0,0,1,0,b,blue,d,space,1,b,star,1760,15380,10041,1760,2,osweb,8,8,8,8,1040,1920,24,1080,24,0,0,1920,,,0,0,1718441445590,triangle,star,circle,cross,1024,2,48000,-16,experiment,,1,odd,Win32,55,75882,77653,,69731,78164,39621,55003,75883,75874,75874,78163,Wisconsin Card Sorting Test,3,6813,3,1024
1,0,100,100,2364,2364,#3d3846,Mozilla,Netscape,"5.0 (Windows NT 10.0; Win64; x64) AppleWebKit/537.36 (KHTML, like Gecko) Chrome/126.0.0.0 Safari/537.36 Edg/126.0.0.0",osweb,osweb,0,yellow,green,blue,red,osweb,1,4,1,b,0,3,3,0,0,3,0,0,3,0,0,0,0,0,0,0,3,3,3,3,3,0,0,15-06-24,15-06-24,13:47:25,Sat Jun 15 2024 13:47:25 GMT+0200 (Mitteleuropäische Sommerzeit),,,The main experiment item,1,False,0,0,C:\Users\maalt\OneDrive - Universität Wien\Dokumente\Uni\Psychologie\8. Semester\Bachelorarbeit\Experimente\Winsconsin\osweb-version,0,0,0,False,mono,False,18,no,white,no,,no,768,1080,1920,1,1,540541,3.9.1,a47ee561-4ea2-80d4-f47b-548d9201c9ec,osweb,0,shape,osweb,,,,3,1,4,2,,osweb,2.1.0,https://jatos.mindprobe.eu,1,1064,1904,1,1,0,1,0,0,1,0,b,yellow,d,space,2,b,cross,2643,15380,10041,2643,2,osweb,8,8,8,8,1040,1920,24,1080,24,0,0,1920,,,0,0,1718441445590,triangle,cross,circle,star,1024,2,48000,-16,experiment,,1,odd,Win32,55,78176,80826,,69731,81336,39621,55003,78176,78172,78172,81335,Wisconsin Card Sorting Test,4,9456,4,1024
1,0,100,100,2448,2448,#3d3846,Mozilla,Netscape,"5.0 (Windows NT 10.0; Win64; x64) AppleWebKit/537.36 (KHTML, like Gecko) Chrome/126.0.0.0 Safari/537.36 Edg/126.0.0.0",osweb,osweb,0,red,yellow,blue,green,osweb,1,0,1,b,0,4,4,0,0,4,0,0,4,0,0,0,0,0,0,0,4,4,4,4,4,0,0,15-06-24,15-06-24,13:47:25,Sat Jun 15 2024 13:47:25 GMT+0200 (Mitteleuropäische Sommerzeit),,,The main experiment item,1,False,0,0,C:\Users\maalt\OneDrive - Universität Wien\Dokumente\Uni\Psychologie\8. Semester\Bachelorarbeit\Experimente\Winsconsin\osweb-version,0,0,0,False,mono,False,18,no,white,no,,no,768,1080,1920,1,1,540541,3.9.1,a47ee561-4ea2-80d4-f47b-548d9201c9ec,osweb,0,color,osweb,,,,1,3,4,2,,osweb,2.1.0,https://jatos.mindprobe.eu,1,1064,1904,1,1,1,0,0,0,1,0,b,blue,d,space,1,b,triangle,2784,15380,10041,2784,2,osweb,8,8,8,8,1040,1920,24,1080,24,0,0,1920,,,0,0,1718441445590,circle,triangle,star,cross,1024,2,48000,-16,experiment,,1,odd,Win32,55,81347,84138,,69731,84648,39621,55003,81347,81344,81344,84648,Wisconsin Card Sorting Test,5,12240,5,1024
1,0,83,83,2460,2460,#3d3846,Mozilla,Netscape,"5.0 (Windows NT 10.0; Win64; x64) AppleWebKit/537.36 (KHTML, like Gecko) Chrome/126.0.0.0 Safari/537.36 Edg/126.0.0.0",osweb,osweb,0,yellow,green,red,blue,osweb,0,0,0,a,0,5,5,0,0,5,0,0,5,0,0,0,0,0,0,0,5,5,5,5,5,0,0,15-06-24,15-06-24,13:47:25,Sat Jun 15 2024 13:47:25 GMT+0200 (Mitteleuropäische Sommerzeit),,,The main experiment item,1,False,0,0,C:\Users\maalt\OneDrive - Universität Wien\Dokumente\Uni\Psychologie\8. Semester\Bachelorarbeit\Experimente\Winsconsin\osweb-version,0,0,0,False,mono,False,18,no,white,no,,no,768,1080,1920,1,1,540541,3.9.1,a47ee561-4ea2-80d4-f47b-548d9201c9ec,osweb,0,color,osweb,,,,2,1,4,3,,osweb,2.1.0,https://jatos.mindprobe.eu,1,1064,1904,1,0,1,1,0,0,1,0,d,yellow,d,space,4,d,star,2521,15380,10041,2521,2,osweb,8,8,8,8,1040,1920,24,1080,24,0,0,1920,,,0,0,1718441445590,triangle,cross,circle,star,1024,2,48000,-16,experiment,,1,odd,Win32,55,84661,84138,87190,69731,87700,39621,55003,84661,84657,84657,87700,Wisconsin Card Sorting Test,5,14761,6,1024
1,0,71,71,2482,2482,#3d3846,Mozilla,Netscape,"5.0 (Windows NT 10.0; Win64; x64) AppleWebKit/537.36 (KHTML, like Gecko) Chrome/126.0.0.0 Safari/537.36 Edg/126.0.0.0",osweb,osweb,0,red,green,yellow,blue,osweb,0,0,0,d,0,6,6,0,0,6,0,0,6,0,0,0,0,0,0,0,6,6,6,6,6,0,0,15-06-24,15-06-24,13:47:25,Sat Jun 15 2024 13:47:25 GMT+0200 (Mitteleuropäische Sommerzeit),,,The main experiment item,1,False,0,0,C:\Users\maalt\OneDrive - Universität Wien\Dokumente\Uni\Psychologie\8. Semester\Bachelorarbeit\Experimente\Winsconsin\osweb-version,0,0,0,False,mono,False,18,no,white,no,,no,768,1080,1920,1,1,540541,3.9.1,a47ee561-4ea2-80d4-f47b-548d9201c9ec,osweb,0,color,osweb,,,,3,1,2,4,,osweb,2.1.0,https://jatos.mindprobe.eu,1,1064,1904,1,0,1,1,0,0,1,0,a,blue,d,space,2,a,star,2612,15380,10041,2612,2,osweb,8,8,8,8,1040,1920,24,1080,24,0,0,1920,,,0,0,1718441445590,star,cross,triangle,circle,1024,2,48000,-16,experiment,,1,odd,Win32,55,87711,84138,90333,69731,90843,39621,55003,87711,87708,87708,90842,Wisconsin Card Sorting Test,5,17373,7,1024
1,0,63,63,2447,2447,#3d3846,Mozilla,Netscape,"5.0 (Windows NT 10.0; Win64; x64) AppleWebKit/537.36 (KHTML, like Gecko) Chrome/126.0.0.0 Safari/537.36 Edg/126.0.0.0",osweb,osweb,0,red,green,blue,yellow,osweb,0,0,0,c,0,7,7,0,0,7,0,0,7,0,0,0,0,0,0,0,7,7,7,7,7,0,0,15-06-24,15-06-24,13:47:25,Sat Jun 15 2024 13:47:25 GMT+0200 (Mitteleuropäische Sommerzeit),,,The main experiment item,1,False,0,0,C:\Users\maalt\OneDrive - Universität Wien\Dokumente\Uni\Psychologie\8. Semester\Bachelorarbeit\Experimente\Winsconsin\osweb-version,0,0,0,False,mono,False,18,no,white,no,,no,768,1080,1920,1,1,540541,3.9.1,a47ee561-4ea2-80d4-f47b-548d9201c9ec,osweb,0,color,osweb,,,,2,3,1,4,,osweb,2.1.0,https://jatos.mindprobe.eu,1,1064,1904,1,1,1,0,0,0,1,0,b,blue,d,space,2,b,circle,2205,15380,10041,2205,2,osweb,8,8,8,8,1040,1920,24,1080,24,0,0,1920,,,0,0,1718441445590,cross,circle,star,triangle,1024,2,48000,-16,experiment,,1,odd,Win32,55,90862,84138,93075,69731,93584,39621,55003,90862,90858,90858,93584,Wisconsin Card Sorting Test,5,19578,8,1024
1,0,67,67,2363,2363,#3d3846,Mozilla,Netscape,"5.0 (Windows NT 10.0; Win64; x64) AppleWebKit/537.36 (KHTML, like Gecko) Chrome/126.0.0.0 Safari/537.36 Edg/126.0.0.0",osweb,osweb,0,green,yellow,blue,red,osweb,1,1,1,a,0,8,8,0,0,8,0,0,8,0,0,0,0,0,0,0,8,8,8,8,8,0,0,15-06-24,15-06-24,13:47:25,Sat Jun 15 2024 13:47:25 GMT+0200 (Mitteleuropäische Sommerzeit),,,The main experiment item,1,False,0,0,C:\Users\maalt\OneDrive - Universität Wien\Dokumente\Uni\Psychologie\8. Semester\Bachelorarbeit\Experimente\Winsconsin\osweb-version,0,0,0,False,mono,False,18,no,white,no,,no,768,1080,1920,1,1,540541,3.9.1,a47ee561-4ea2-80d4-f47b-548d9201c9ec,osweb,0,color,osweb,,,,2,1,3,4,,osweb,2.1.0,https://jatos.mindprobe.eu,1,1064,1904,1,1,1,0,0,0,1,0,a,green,d,space,3,a,circle,1686,15380,10041,1686,2,osweb,8,8,8,8,1040,1920,24,1080,24,0,0,1920,,,0,0,1718441445590,star,circle,cross,triangle,1024,2,48000,-16,experiment,,1,odd,Win32,55,93597,95285,93075,69731,95796,39621,55003,93597,93593,93593,95795,Wisconsin Card Sorting Test,6,21264,9,1024
1,0,60,60,2265,2265,#3d3846,Mozilla,Netscape,"5.0 (Windows NT 10.0; Win64; x64) AppleWebKit/537.36 (KHTML, like Gecko) Chrome/126.0.0.0 Safari/537.36 Edg/126.0.0.0",osweb,osweb,0,red,blue,green,yellow,osweb,0,0,0,d,0,9,9,0,0,9,0,0,9,0,0,0,0,0,0,0,9,9,9,9,9,0,0,15-06-24,15-06-24,13:47:25,Sat Jun 15 2024 13:47:25 GMT+0200 (Mitteleuropäische Sommerzeit),,,The main experiment item,1,False,0,0,C:\Users\maalt\OneDrive - Universität Wien\Dokumente\Uni\Psychologie\8. Semester\Bachelorarbeit\Experimente\Winsconsin\osweb-version,0,0,0,False,mono,False,18,no,white,no,,no,768,1080,1920,1,1,540541,3.9.1,a47ee561-4ea2-80d4-f47b-548d9201c9ec,osweb,0,color,osweb,,,,4,2,3,1,,osweb,2.1.0,https://jatos.mindprobe.eu,1,1064,1904,1,0,1,1,0,0,1,0,b,yellow,d,space,4,b,star,1387,15380,10041,1387,2,osweb,8,8,8,8,1040,1920,24,1080,24,0,0,1920,,,0,0,1718441445590,circle,cross,star,triangle,1024,2,48000,-16,experiment,,1,odd,Win32,55,95808,95285,97197,69731,97707,39621,55003,95808,95805,95805,97707,Wisconsin Card Sorting Test,6,22651,10,1024
1,0,55,55,2292,2292,#3d3846,Mozilla,Netscape,"5.0 (Windows NT 10.0; Win64; x64) AppleWebKit/537.36 (KHTML, like Gecko) Chrome/126.0.0.0 Safari/537.36 Edg/126.0.0.0",osweb,osweb,0,red,blue,green,yellow,osweb,0,0,0,d,0,10,10,0,0,10,0,0,10,0,0,0,0,0,0,0,10,10,10,10,10,0,0,15-06-24,15-06-24,13:47:25,Sat Jun 15 2024 13:47:25 GMT+0200 (Mitteleuropäische Sommerzeit),,,The main experiment item,1,False,0,0,C:\Users\maalt\OneDrive - Universität Wien\Dokumente\Uni\Psychologie\8. Semester\Bachelorarbeit\Experimente\Winsconsin\osweb-version,0,0,0,False,mono,False,18,no,white,no,,no,768,1080,1920,1,1,540541,3.9.1,a47ee561-4ea2-80d4-f47b-548d9201c9ec,osweb,0,color,osweb,,,,3,2,1,4,,osweb,2.1.0,https://jatos.mindprobe.eu,1,1064,1904,1,0,1,1,0,0,1,0,a,yellow,d,space,1,a,circle,2559,15380,10041,2559,2,osweb,8,8,8,8,1040,1920,24,1080,24,0,0,1920,,,0,0,1718441445590,circle,cross,triangle,star,1024,2,48000,-16,experiment,,1,odd,Win32,55,97716,95285,100279,69731,100789,39621,55003,97716,97715,97715,100789,Wisconsin Card Sorting Test,6,25210,11,1024
1,0,50,50,2311,2311,#3d3846,Mozilla,Netscape,"5.0 (Windows NT 10.0; Win64; x64) AppleWebKit/537.36 (KHTML, like Gecko) Chrome/126.0.0.0 Safari/537.36 Edg/126.0.0.0",osweb,osweb,0,green,red,blue,yellow,osweb,0,0,0,a,0,11,11,0,0,11,0,0,11,0,0,0,0,0,0,0,11,11,11,11,11,0,0,15-06-24,15-06-24,13:47:25,Sat Jun 15 2024 13:47:25 GMT+0200 (Mitteleuropäische Sommerzeit),,,The main experiment item,1,False,0,0,C:\Users\maalt\OneDrive - Universität Wien\Dokumente\Uni\Psychologie\8. Semester\Bachelorarbeit\Experimente\Winsconsin\osweb-version,0,0,0,False,mono,False,18,no,white,no,,no,768,1080,1920,1,1,540541,3.9.1,a47ee561-4ea2-80d4-f47b-548d9201c9ec,osweb,0,color,osweb,,,,2,1,3,4,,osweb,2.1.0,https://jatos.mindprobe.eu,1,1064,1904,1,1,1,0,0,0,1,0,c,green,d,space,1,c,circle,2521,15380,10041,2521,2,osweb,8,8,8,8,1040,1920,24,1080,24,0,0,1920,,,0,0,1718441445590,cross,triangle,circle,star,1024,2,48000,-16,experiment,,1,odd,Win32,55,100802,95285,103332,69731,103841,39621,55003,100802,100798,100798,103841,Wisconsin Card Sorting Test,6,27731,12,1024
1,0,46,46,2307,2307,#3d3846,Mozilla,Netscape,"5.0 (Windows NT 10.0; Win64; x64) AppleWebKit/537.36 (KHTML, like Gecko) Chrome/126.0.0.0 Safari/537.36 Edg/126.0.0.0",osweb,osweb,0,blue,red,yellow,green,osweb,0,0,0,c,0,12,12,0,0,12,0,0,12,0,0,0,0,0,0,0,12,12,12,12,12,0,0,15-06-24,15-06-24,13:47:25,Sat Jun 15 2024 13:47:25 GMT+0200 (Mitteleuropäische Sommerzeit),,,The main experiment item,1,False,0,0,C:\Users\maalt\OneDrive - Universität Wien\Dokumente\Uni\Psychologie\8. Semester\Bachelorarbeit\Experimente\Winsconsin\osweb-version,0,0,0,False,mono,False,18,no,white,no,,no,768,1080,1920,1,1,540541,3.9.1,a47ee561-4ea2-80d4-f47b-548d9201c9ec,osweb,0,color,osweb,,,,3,1,4,2,,osweb,2.1.0,https://jatos.mindprobe.eu,1,1064,1904,1,1,1,0,0,0,1,0,b,yellow,d,space,3,b,cross,2260,15380,10041,2260,2,osweb,8,8,8,8,1040,1920,24,1080,24,0,0,1920,,,0,0,1718441445590,triangle,cross,star,circle,1024,2,48000,-16,experiment,,1,odd,Win32,55,103855,95285,106123,69731,106633,39621,55003,103855,103850,103850,106633,Wisconsin Card Sorting Test,6,29991,13,1024
1,0,43,43,2259,2259,#3d3846,Mozilla,Netscape,"5.0 (Windows NT 10.0; Win64; x64) AppleWebKit/537.36 (KHTML, like Gecko) Chrome/126.0.0.0 Safari/537.36 Edg/126.0.0.0",osweb,osweb,0,red,blue,yellow,green,osweb,0,0,0,b,0,13,13,0,0,13,0,0,13,0,0,0,0,0,0,0,13,13,13,13,13,0,0,15-06-24,15-06-24,13:47:25,Sat Jun 15 2024 13:47:25 GMT+0200 (Mitteleuropäische Sommerzeit),,,The main experiment item,1,False,0,0,C:\Users\maalt\OneDrive - Universität Wien\Dokumente\Uni\Psychologie\8. Semester\Bachelorarbeit\Experimente\Winsconsin\osweb-version,0,0,0,False,mono,False,18,no,white,no,,no,768,1080,1920,1,1,540541,3.9.1,a47ee561-4ea2-80d4-f47b-548d9201c9ec,osweb,0,color,osweb,,,,3,1,2,4,,osweb,2.1.0,https://jatos.mindprobe.eu,1,1064,1904,1,1,1,0,0,0,1,0,a,blue,d,space,2,a,triangle,1632,15380,10041,1632,2,osweb,8,8,8,8,1040,1920,24,1080,24,0,0,1920,,,0,0,1718441445590,triangle,cross,star,circle,1024,2,48000,-16,experiment,,1,odd,Win32,55,106650,95285,108285,69731,108795,39621,55003,106651,106645,106645,108794,Wisconsin Card Sorting Test,6,31623,14,1024
1,0,47,47,2474,2474,#3d3846,Mozilla,Netscape,"5.0 (Windows NT 10.0; Win64; x64) AppleWebKit/537.36 (KHTML, like Gecko) Chrome/126.0.0.0 Safari/537.36 Edg/126.0.0.0",osweb,osweb,0,green,yellow,blue,red,osweb,1,1,1,d,0,14,14,0,0,14,0,0,14,0,0,0,0,0,0,0,14,14,14,14,14,0,0,15-06-24,15-06-24,13:47:25,Sat Jun 15 2024 13:47:25 GMT+0200 (Mitteleuropäische Sommerzeit),,,The main experiment item,1,False,0,0,C:\Users\maalt\OneDrive - Universität Wien\Dokumente\Uni\Psychologie\8. Semester\Bachelorarbeit\Experimente\Winsconsin\osweb-version,0,0,0,False,mono,False,18,no,white,no,,no,768,1080,1920,1,1,540541,3.9.1,a47ee561-4ea2-80d4-f47b-548d9201c9ec,osweb,0,color,osweb,,,,2,1,4,3,,osweb,2.1.0,https://jatos.mindprobe.eu,1,1064,1904,1,1,0,1,0,0,1,0,d,red,d,space,1,d,star,5484,15380,10041,5484,2,osweb,8,8,8,8,1040,1920,24,1080,24,0,0,1920,,,0,0,1718441445590,star,cross,triangle,circle,1024,2,48000,-16,experiment,,1,odd,Win32,55,108806,114300,108285,69731,114809,39621,55003,108806,108803,108803,114808,Wisconsin Card Sorting Test,7,37107,15,1024
1,0,50,50,2418,2418,#3d3846,Mozilla,Netscape,"5.0 (Windows NT 10.0; Win64; x64) AppleWebKit/537.36 (KHTML, like Gecko) Chrome/126.0.0.0 Safari/537.36 Edg/126.0.0.0",osweb,osweb,0,green,yellow,red,blue,osweb,1,2,1,b,0,15,15,0,0,15,0,0,15,0,0,0,0,0,0,0,15,15,15,15,15,0,0,15-06-24,15-06-24,13:47:25,Sat Jun 15 2024 13:47:25 GMT+0200 (Mitteleuropäische Sommerzeit),,,The main experiment item,1,False,0,0,C:\Users\maalt\OneDrive - Universität Wien\Dokumente\Uni\Psychologie\8. Semester\Bachelorarbeit\Experimente\Winsconsin\osweb-version,0,0,0,False,mono,False,18,no,white,no,,no,768,1080,1920,1,1,540541,3.9.1,a47ee561-4ea2-80d4-f47b-548d9201c9ec,osweb,0,color,osweb,,,,1,2,3,4,,osweb,2.1.0,https://jatos.mindprobe.eu,1,1064,1904,0,1,1,1,0,0,1,0,b,yellow,d,space,3,b,cross,1581,15380,10041,1581,2,osweb,8,8,8,8,1040,1920,24,1080,24,0,0,1920,,,0,0,1718441445590,star,triangle,circle,cross,1024,2,48000,-16,experiment,,1,odd,Win32,55,114821,116411,108285,69731,116921,39621,55003,114821,114819,114819,116920,Wisconsin Card Sorting Test,8,38688,16,1024
1,0,53,53,2360,2360,#3d3846,Mozilla,Netscape,"5.0 (Windows NT 10.0; Win64; x64) AppleWebKit/537.36 (KHTML, like Gecko) Chrome/126.0.0.0 Safari/537.36 Edg/126.0.0.0",osweb,osweb,0,green,red,blue,yellow,osweb,1,3,1,a,0,16,16,0,0,16,0,0,16,0,0,0,0,0,0,0,16,16,16,16,16,0,0,15-06-24,15-06-24,13:47:25,Sat Jun 15 2024 13:47:25 GMT+0200 (Mitteleuropäische Sommerzeit),,,The main experiment item,1,False,0,0,C:\Users\maalt\OneDrive - Universität Wien\Dokumente\Uni\Psychologie\8. Semester\Bachelorarbeit\Experimente\Winsconsin\osweb-version,0,0,0,False,mono,False,18,no,white,no,,no,768,1080,1920,1,1,540541,3.9.1,a47ee561-4ea2-80d4-f47b-548d9201c9ec,osweb,0,color,osweb,,,,1,4,2,3,,osweb,2.1.0,https://jatos.mindprobe.eu,1,1064,1904,1,0,1,1,0,0,1,0,a,green,d,space,3,a,cross,1439,15380,10041,1439,2,osweb,8,8,8,8,1040,1920,24,1080,24,0,0,1920,,,0,0,1718441445590,circle,star,cross,triangle,1024,2,48000,-16,experiment,,1,odd,Win32,55,116934,118382,108285,69731,118892,39621,55003,116934,116932,116932,118892,Wisconsin Card Sorting Test,9,40127,17,1024
1,0,56,56,2360,2360,#3d3846,Mozilla,Netscape,"5.0 (Windows NT 10.0; Win64; x64) AppleWebKit/537.36 (KHTML, like Gecko) Chrome/126.0.0.0 Safari/537.36 Edg/126.0.0.0",osweb,osweb,0,yellow,blue,red,green,osweb,1,4,1,d,0,17,17,0,0,17,0,0,17,0,0,0,0,0,0,0,17,17,17,17,17,0,0,15-06-24,15-06-24,13:47:25,Sat Jun 15 2024 13:47:25 GMT+0200 (Mitteleuropäische Sommerzeit),,,The main experiment item,1,False,0,0,C:\Users\maalt\OneDrive - Universität Wien\Dokumente\Uni\Psychologie\8. Semester\Bachelorarbeit\Experimente\Winsconsin\osweb-version,0,0,0,False,mono,False,18,no,white,no,,no,768,1080,1920,1,1,540541,3.9.1,a47ee561-4ea2-80d4-f47b-548d9201c9ec,osweb,0,color,osweb,,,,3,1,2,4,,osweb,2.1.0,https://jatos.mindprobe.eu,1,1064,1904,1,0,1,1,0,0,1,0,d,green,d,space,2,d,star,2354,15380,10041,2354,2,osweb,8,8,8,8,1040,1920,24,1080,24,0,0,1920,,,0,0,1718441445590,star,cross,circle,triangle,1024,2,48000,-16,experiment,,1,odd,Win32,55,118904,121264,108285,69731,121774,39621,55003,118904,118900,118900,121774,Wisconsin Card Sorting Test,10,42481,18,1024
1,0,58,58,2307,2307,#3d3846,Mozilla,Netscape,"5.0 (Windows NT 10.0; Win64; x64) AppleWebKit/537.36 (KHTML, like Gecko) Chrome/126.0.0.0 Safari/537.36 Edg/126.0.0.0",osweb,osweb,0,blue,yellow,red,green,osweb,1,0,1,d,0,18,18,0,0,18,0,0,18,0,0,0,0,0,0,0,18,18,18,18,18,0,0,15-06-24,15-06-24,13:47:25,Sat Jun 15 2024 13:47:25 GMT+0200 (Mitteleuropäische Sommerzeit),,,The main experiment item,1,False,0,0,C:\Users\maalt\OneDrive - Universität Wien\Dokumente\Uni\Psychologie\8. Semester\Bachelorarbeit\Experimente\Winsconsin\osweb-version,0,0,0,False,mono,False,18,no,white,no,,no,768,1080,1920,1,1,540541,3.9.1,a47ee561-4ea2-80d4-f47b-548d9201c9ec,osweb,0,shape,osweb,,,,1,3,4,2,,osweb,2.1.0,https://jatos.mindprobe.eu,1,1064,1904,1,0,1,1,0,0,1,0,d,green,d,space,4,d,circle,1353,15380,10041,1353,2,osweb,8,8,8,8,1040,1920,24,1080,24,0,0,1920,,,0,0,1718441445590,circle,star,triangle,cross,1024,2,48000,-16,experiment,,1,odd,Win32,55,121784,123145,108285,69731,123655,39621,55003,121785,121783,121783,123655,Wisconsin Card Sorting Test,11,43834,19,1024
1,0,55,55,2268,2268,#3d3846,Mozilla,Netscape,"5.0 (Windows NT 10.0; Win64; x64) AppleWebKit/537.36 (KHTML, like Gecko) Chrome/126.0.0.0 Safari/537.36 Edg/126.0.0.0",osweb,osweb,0,green,red,yellow,blue,osweb,0,0,0,a,0,19,19,0,0,19,0,0,19,0,0,0,0,0,0,0,19,19,19,19,19,0,0,15-06-24,15-06-24,13:47:25,Sat Jun 15 2024 13:47:25 GMT+0200 (Mitteleuropäische Sommerzeit),,,The main experiment item,1,False,0,0,C:\Users\maalt\OneDrive - Universität Wien\Dokumente\Uni\Psychologie\8. Semester\Bachelorarbeit\Experimente\Winsconsin\osweb-version,0,0,0,False,mono,False,18,no,white,no,,no,768,1080,1920,1,1,540541,3.9.1,a47ee561-4ea2-80d4-f47b-548d9201c9ec,osweb,0,shape,osweb,,,,1,4,3,2,,osweb,2.1.0,https://jatos.mindprobe.eu,1,1064,1904,1,0,1,1,0,0,1,0,c,yellow,d,space,2,c,triangle,1535,15380,10041,1535,2,osweb,8,8,8,8,1040,1920,24,1080,24,0,0,1920,,,0,0,1718441445590,triangle,circle,cross,star,1024,2,48000,-16,experiment,,1,odd,Win32,55,123667,123145,125207,69731,125717,39621,55003,123667,123667,123667,125716,Wisconsin Card Sorting Test,11,45369,20,1024
1,0,52,52,2229,2229,#3d3846,Mozilla,Netscape,"5.0 (Windows NT 10.0; Win64; x64) AppleWebKit/537.36 (KHTML, like Gecko) Chrome/126.0.0.0 Safari/537.36 Edg/126.0.0.0",osweb,osweb,0,blue,yellow,red,green,osweb,0,0,0,d,0,20,20,0,0,20,0,0,20,0,0,0,0,0,0,0,20,20,20,20,20,0,0,15-06-24,15-06-24,13:47:25,Sat Jun 15 2024 13:47:25 GMT+0200 (Mitteleuropäische Sommerzeit),,,The main experiment item,1,False,0,0,C:\Users\maalt\OneDrive - Universität Wien\Dokumente\Uni\Psychologie\8. Semester\Bachelorarbeit\Experimente\Winsconsin\osweb-version,0,0,0,False,mono,False,18,no,white,no,,no,768,1080,1920,1,1,540541,3.9.1,a47ee561-4ea2-80d4-f47b-548d9201c9ec,osweb,0,shape,osweb,,,,1,2,4,3,,osweb,2.1.0,https://jatos.mindprobe.eu,1,1064,1904,1,0,1,1,0,0,1,0,a,blue,d,space,4,a,star,1436,15380,10041,1436,2,osweb,8,8,8,8,1040,1920,24,1080,24,0,0,1920,,,0,0,1718441445590,triangle,circle,cross,star,1024,2,48000,-16,experiment,,1,odd,Win32,55,125727,123145,127168,69731,127678,39621,55003,125727,125724,125725,127678,Wisconsin Card Sorting Test,11,46805,21,1024
1,0,50,50,2236,2236,#3d3846,Mozilla,Netscape,"5.0 (Windows NT 10.0; Win64; x64) AppleWebKit/537.36 (KHTML, like Gecko) Chrome/126.0.0.0 Safari/537.36 Edg/126.0.0.0",osweb,osweb,0,green,yellow,red,blue,osweb,0,0,0,c,0,21,21,0,0,21,0,0,21,0,0,0,0,0,0,0,21,21,21,21,21,0,0,15-06-24,15-06-24,13:47:25,Sat Jun 15 2024 13:47:25 GMT+0200 (Mitteleuropäische Sommerzeit),,,The main experiment item,1,False,0,0,C:\Users\maalt\OneDrive - Universität Wien\Dokumente\Uni\Psychologie\8. Semester\Bachelorarbeit\Experimente\Winsconsin\osweb-version,0,0,0,False,mono,False,18,no,white,no,,no,768,1080,1920,1,1,540541,3.9.1,a47ee561-4ea2-80d4-f47b-548d9201c9ec,osweb,0,shape,osweb,,,,1,3,2,4,,osweb,2.1.0,https://jatos.mindprobe.eu,1,1064,1904,1,0,1,1,0,0,1,0,b,green,d,space,4,b,circle,2388,15380,10041,2388,2,osweb,8,8,8,8,1040,1920,24,1080,24,0,0,1920,,,0,0,1718441445590,triangle,star,circle,cross,1024,2,48000,-16,experiment,,1,odd,Win32,55,127687,123145,130080,69731,130590,39621,55003,127687,127686,127686,130590,Wisconsin Card Sorting Test,11,49193,22,1024
1,0,52,52,2280,2280,#3d3846,Mozilla,Netscape,"5.0 (Windows NT 10.0; Win64; x64) AppleWebKit/537.36 (KHTML, like Gecko) Chrome/126.0.0.0 Safari/537.36 Edg/126.0.0.0",osweb,osweb,0,green,yellow,blue,red,osweb,1,1,1,b,0,22,22,0,0,22,0,0,22,0,0,0,0,0,0,0,22,22,22,22,22,0,0,15-06-24,15-06-24,13:47:25,Sat Jun 15 2024 13:47:25 GMT+0200 (Mitteleuropäische Sommerzeit),,,The main experiment item,1,False,0,0,C:\Users\maalt\OneDrive - Universität Wien\Dokumente\Uni\Psychologie\8. Semester\Bachelorarbeit\Experimente\Winsconsin\osweb-version,0,0,0,False,mono,False,18,no,white,no,,no,768,1080,1920,1,1,540541,3.9.1,a47ee561-4ea2-80d4-f47b-548d9201c9ec,osweb,0,shape,osweb,,,,2,1,3,4,,osweb,2.1.0,https://jatos.mindprobe.eu,1,1064,1904,0,1,1,1,0,0,1,0,b,red,d,space,3,b,triangle,3248,15380,10041,3248,2,osweb,8,8,8,8,1040,1920,24,1080,24,0,0,1920,,,0,0,1718441445590,star,triangle,cross,circle,1024,2,48000,-16,experiment,,1,odd,Win32,55,130602,133853,130080,69731,134362,39621,55003,130602,130599,130599,134362,Wisconsin Card Sorting Test,12,52441,23,1024
1,0,54,54,2256,2256,#3d3846,Mozilla,Netscape,"5.0 (Windows NT 10.0; Win64; x64) AppleWebKit/537.36 (KHTML, like Gecko) Chrome/126.0.0.0 Safari/537.36 Edg/126.0.0.0",osweb,osweb,0,green,yellow,red,blue,osweb,1,2,1,d,0,23,23,0,0,23,0,0,23,0,0,0,0,0,0,0,23,23,23,23,23,0,0,15-06-24,15-06-24,13:47:25,Sat Jun 15 2024 13:47:25 GMT+0200 (Mitteleuropäische Sommerzeit),,,The main experiment item,1,False,0,0,C:\Users\maalt\OneDrive - Universität Wien\Dokumente\Uni\Psychologie\8. Semester\Bachelorarbeit\Experimente\Winsconsin\osweb-version,0,0,0,False,mono,False,18,no,white,no,,no,768,1080,1920,1,1,540541,3.9.1,a47ee561-4ea2-80d4-f47b-548d9201c9ec,osweb,0,shape,osweb,,,,4,3,1,2,,osweb,2.1.0,https://jatos.mindprobe.eu,1,1064,1904,0,1,1,1,0,0,1,0,d,red,d,space,3,d,cross,1695,15380,10041,1695,2,osweb,8,8,8,8,1040,1920,24,1080,24,0,0,1920,,,0,0,1718441445590,star,circle,triangle,cross,1024,2,48000,-16,experiment,,1,odd,Win32,55,134372,136075,130080,69731,136584,39621,55003,134372,134367,134367,136584,Wisconsin Card Sorting Test,13,54136,24,1024
1,0,56,56,2287,2287,#3d3846,Mozilla,Netscape,"5.0 (Windows NT 10.0; Win64; x64) AppleWebKit/537.36 (KHTML, like Gecko) Chrome/126.0.0.0 Safari/537.36 Edg/126.0.0.0",osweb,osweb,0,green,blue,red,yellow,osweb,1,3,1,d,0,24,24,0,0,24,0,0,24,0,0,0,0,0,0,0,24,24,24,24,24,0,0,15-06-24,15-06-24,13:47:25,Sat Jun 15 2024 13:47:25 GMT+0200 (Mitteleuropäische Sommerzeit),,,The main experiment item,1,False,0,0,C:\Users\maalt\OneDrive - Universität Wien\Dokumente\Uni\Psychologie\8. Semester\Bachelorarbeit\Experimente\Winsconsin\osweb-version,0,0,0,False,mono,False,18,no,white,no,,no,768,1080,1920,1,1,540541,3.9.1,a47ee561-4ea2-80d4-f47b-548d9201c9ec,osweb,0,shape,osweb,,,,4,3,2,1,,osweb,2.1.0,https://jatos.mindprobe.eu,1,1064,1904,1,0,1,1,0,0,1,0,d,green,d,space,2,d,cross,3051,15380,10041,3051,2,osweb,8,8,8,8,1040,1920,24,1080,24,0,0,1920,,,0,0,1718441445590,circle,triangle,star,cross,1024,2,48000,-16,experiment,,1,odd,Win32,55,136599,139657,130080,69731,140167,39621,55003,136599,136592,136596,140166,Wisconsin Card Sorting Test,14,57187,25,1024
1,0,58,58,2313,2313,#3d3846,Mozilla,Netscape,"5.0 (Windows NT 10.0; Win64; x64) AppleWebKit/537.36 (KHTML, like Gecko) Chrome/126.0.0.0 Safari/537.36 Edg/126.0.0.0",osweb,osweb,0,green,red,yellow,blue,osweb,1,4,1,d,0,25,25,0,0,25,0,0,25,0,0,0,0,0,0,0,25,25,25,25,25,0,0,15-06-24,15-06-24,13:47:25,Sat Jun 15 2024 13:47:25 GMT+0200 (Mitteleuropäische Sommerzeit),,,The main experiment item,1,False,0,0,C:\Users\maalt\OneDrive - Universität Wien\Dokumente\Uni\Psychologie\8. Semester\Bachelorarbeit\Experimente\Winsconsin\osweb-version,0,0,0,False,mono,False,18,no,white,no,,no,768,1080,1920,1,1,540541,3.9.1,a47ee561-4ea2-80d4-f47b-548d9201c9ec,osweb,0,shape,osweb,,,,3,1,4,2,,osweb,2.1.0,https://jatos.mindprobe.eu,1,1064,1904,1,0,1,1,0,0,1,0,d,yellow,d,space,3,d,star,2945,15380,10041,2945,2,osweb,8,8,8,8,1040,1920,24,1080,24,0,0,1920,,,0,0,1718441445590,circle,triangle,cross,star,1024,2,48000,-16,experiment,,1,odd,Win32,55,140179,143129,130080,69731,143639,39621,55003,140179,140177,140177,143639,Wisconsin Card Sorting Test,15,60132,26,1024
1,0,59,59,2293,2293,#3d3846,Mozilla,Netscape,"5.0 (Windows NT 10.0; Win64; x64) AppleWebKit/537.36 (KHTML, like Gecko) Chrome/126.0.0.0 Safari/537.36 Edg/126.0.0.0",osweb,osweb,0,red,yellow,blue,green,osweb,1,0,1,c,0,26,26,0,0,26,0,0,26,0,0,0,0,0,0,0,26,26,26,26,26,0,0,15-06-24,15-06-24,13:47:25,Sat Jun 15 2024 13:47:25 GMT+0200 (Mitteleuropäische Sommerzeit),,,The main experiment item,1,False,0,0,C:\Users\maalt\OneDrive - Universität Wien\Dokumente\Uni\Psychologie\8. Semester\Bachelorarbeit\Experimente\Winsconsin\osweb-version,0,0,0,False,mono,False,18,no,white,no,,no,768,1080,1920,1,1,540541,3.9.1,a47ee561-4ea2-80d4-f47b-548d9201c9ec,osweb,0,color,osweb,,,,1,2,3,4,,osweb,2.1.0,https://jatos.mindprobe.eu,1,1064,1904,1,0,1,1,0,0,1,0,c,green,d,space,1,c,cross,1790,15380,10041,1790,2,osweb,8,8,8,8,1040,1920,24,1080,24,0,0,1920,,,0,0,1718441445590,star,triangle,cross,circle,1024,2,48000,-16,experiment,,1,odd,Win32,55,143652,145450,130080,69731,145961,39621,55003,143652,143650,143650,145960,Wisconsin Card Sorting Test,16,61922,27,1024
1,0,57,57,2269,2269,#3d3846,Mozilla,Netscape,"5.0 (Windows NT 10.0; Win64; x64) AppleWebKit/537.36 (KHTML, like Gecko) Chrome/126.0.0.0 Safari/537.36 Edg/126.0.0.0",osweb,osweb,0,green,yellow,red,blue,osweb,0,0,0,a,0,27,27,0,0,27,0,0,27,0,0,0,0,0,0,0,27,27,27,27,27,0,0,15-06-24,15-06-24,13:47:25,Sat Jun 15 2024 13:47:25 GMT+0200 (Mitteleuropäische Sommerzeit),,,The main experiment item,1,False,0,0,C:\Users\maalt\OneDrive - Universität Wien\Dokumente\Uni\Psychologie\8. Semester\Bachelorarbeit\Experimente\Winsconsin\osweb-version,0,0,0,False,mono,False,18,no,white,no,,no,768,1080,1920,1,1,540541,3.9.1,a47ee561-4ea2-80d4-f47b-548d9201c9ec,osweb,0,color,osweb,,,,4,1,3,2,,osweb,2.1.0,https://jatos.mindprobe.eu,1,1064,1904,1,1,0,1,0,0,1,0,b,green,d,space,2,b,circle,1619,15380,10041,1619,2,osweb,8,8,8,8,1040,1920,24,1080,24,0,0,1920,,,0,0,1718441445590,cross,circle,triangle,star,1024,2,48000,-16,experiment,,1,odd,Win32,55,145975,145450,147602,69731,148112,39621,55003,145975,145973,145973,148112,Wisconsin Card Sorting Test,16,63541,28,1024
1,0,59,59,2238,2238,#3d3846,Mozilla,Netscape,"5.0 (Windows NT 10.0; Win64; x64) AppleWebKit/537.36 (KHTML, like Gecko) Chrome/126.0.0.0 Safari/537.36 Edg/126.0.0.0",osweb,osweb,0,yellow,red,blue,green,osweb,1,1,1,a,0,28,28,0,0,28,0,0,28,0,0,0,0,0,0,0,28,28,28,28,28,0,0,15-06-24,15-06-24,13:47:25,Sat Jun 15 2024 13:47:25 GMT+0200 (Mitteleuropäische Sommerzeit),,,The main experiment item,1,False,0,0,C:\Users\maalt\OneDrive - Universität Wien\Dokumente\Uni\Psychologie\8. Semester\Bachelorarbeit\Experimente\Winsconsin\osweb-version,0,0,0,False,mono,False,18,no,white,no,,no,768,1080,1920,1,1,540541,3.9.1,a47ee561-4ea2-80d4-f47b-548d9201c9ec,osweb,0,color,osweb,,,,2,3,1,4,,osweb,2.1.0,https://jatos.mindprobe.eu,1,1064,1904,1,1,0,1,0,0,1,0,a,yellow,d,space,4,a,cross,1354,15380,10041,1354,2,osweb,8,8,8,8,1040,1920,24,1080,24,0,0,1920,,,0,0,1718441445590,triangle,cross,circle,star,1024,2,48000,-16,experiment,,1,odd,Win32,55,148121,149484,147602,69731,149994,39621,55003,148121,148120,148120,149993,Wisconsin Card Sorting Test,17,64895,29,1024
1,0,60,60,2213,2213,#3d3846,Mozilla,Netscape,"5.0 (Windows NT 10.0; Win64; x64) AppleWebKit/537.36 (KHTML, like Gecko) Chrome/126.0.0.0 Safari/537.36 Edg/126.0.0.0",osweb,osweb,0,green,yellow,blue,red,osweb,1,2,1,c,0,29,29,0,0,29,0,0,29,0,0,0,0,0,0,0,29,29,29,29,29,0,0,15-06-24,15-06-24,13:47:25,Sat Jun 15 2024 13:47:25 GMT+0200 (Mitteleuropäische Sommerzeit),,,The main experiment item,1,False,0,0,C:\Users\maalt\OneDrive - Universität Wien\Dokumente\Uni\Psychologie\8. Semester\Bachelorarbeit\Experimente\Winsconsin\osweb-version,0,0,0,False,mono,False,18,no,white,no,,no,768,1080,1920,1,1,540541,3.9.1,a47ee561-4ea2-80d4-f47b-548d9201c9ec,osweb,0,color,osweb,,,,1,2,3,4,,osweb,2.1.0,https://jatos.mindprobe.eu,1,1064,1904,1,1,1,0,0,0,1,0,c,blue,d,space,2,c,cross,1487,15380,10041,1487,2,osweb,8,8,8,8,1040,1920,24,1080,24,0,0,1920,,,0,0,1718441445590,cross,circle,star,triangle,1024,2,48000,-16,experiment,,1,odd,Win32,55,150003,151495,147602,69731,152005,39621,55003,150003,150001,150001,152004,Wisconsin Card Sorting Test,18,66382,30,1024
1,0,61,61,2219,2219,#3d3846,Mozilla,Netscape,"5.0 (Windows NT 10.0; Win64; x64) AppleWebKit/537.36 (KHTML, like Gecko) Chrome/126.0.0.0 Safari/537.36 Edg/126.0.0.0",osweb,osweb,0,blue,green,yellow,red,osweb,1,3,1,d,0,30,30,0,0,30,0,0,30,0,0,0,0,0,0,0,30,30,30,30,30,0,0,15-06-24,15-06-24,13:47:25,Sat Jun 15 2024 13:47:25 GMT+0200 (Mitteleuropäische Sommerzeit),,,The main experiment item,1,False,0,0,C:\Users\maalt\OneDrive - Universität Wien\Dokumente\Uni\Psychologie\8. Semester\Bachelorarbeit\Experimente\Winsconsin\osweb-version,0,0,0,False,mono,False,18,no,white,no,,no,768,1080,1920,1,1,540541,3.9.1,a47ee561-4ea2-80d4-f47b-548d9201c9ec,osweb,0,color,osweb,,,,4,2,3,1,,osweb,2.1.0,https://jatos.mindprobe.eu,1,1064,1904,1,1,0,1,0,0,1,0,d,red,d,space,2,d,star,2415,15380,10041,2415,2,osweb,8,8,8,8,1040,1920,24,1080,24,0,0,1920,,,0,0,1718441445590,star,circle,triangle,cross,1024,2,48000,-16,experiment,,1,odd,Win32,55,152015,154437,147602,69731,154947,39621,55003,152015,152013,152014,154947,Wisconsin Card Sorting Test,19,68797,31,1024
1,0,63,63,2229,2229,#3d3846,Mozilla,Netscape,"5.0 (Windows NT 10.0; Win64; x64) AppleWebKit/537.36 (KHTML, like Gecko) Chrome/126.0.0.0 Safari/537.36 Edg/126.0.0.0",osweb,osweb,0,yellow,green,red,blue,osweb,1,4,1,b,0,31,31,0,0,31,0,0,31,0,0,0,0,0,0,0,31,31,31,31,31,0,0,15-06-24,15-06-24,13:47:25,Sat Jun 15 2024 13:47:25 GMT+0200 (Mitteleuropäische Sommerzeit),,,The main experiment item,1,False,0,0,C:\Users\maalt\OneDrive - Universität Wien\Dokumente\Uni\Psychologie\8. Semester\Bachelorarbeit\Experimente\Winsconsin\osweb-version,0,0,0,False,mono,False,18,no,white,no,,no,768,1080,1920,1,1,540541,3.9.1,a47ee561-4ea2-80d4-f47b-548d9201c9ec,osweb,0,color,osweb,,,,3,2,1,4,,osweb,2.1.0,https://jatos.mindprobe.eu,1,1064,1904,1,1,0,1,0,0,1,0,b,green,d,space,3,b,cross,2531,15380,10041,2531,2,osweb,8,8,8,8,1040,1920,24,1080,24,0,0,1920,,,0,0,1718441445590,circle,star,triangle,cross,1024,2,48000,-16,experiment,,1,odd,Win32,55,154959,157500,147602,69731,158009,39621,55003,154959,154959,154959,158009,Wisconsin Card Sorting Test,20,71328,32,1024
1,0,64,64,2221,2221,#3d3846,Mozilla,Netscape,"5.0 (Windows NT 10.0; Win64; x64) AppleWebKit/537.36 (KHTML, like Gecko) Chrome/126.0.0.0 Safari/537.36 Edg/126.0.0.0",osweb,osweb,0,blue,red,green,yellow,osweb,1,0,1,a,0,32,32,0,0,32,0,0,32,0,0,0,0,0,0,0,32,32,32,32,32,0,0,15-06-24,15-06-24,13:47:25,Sat Jun 15 2024 13:47:25 GMT+0200 (Mitteleuropäische Sommerzeit),,,The main experiment item,1,False,0,0,C:\Users\maalt\OneDrive - Universität Wien\Dokumente\Uni\Psychologie\8. Semester\Bachelorarbeit\Experimente\Winsconsin\osweb-version,0,0,0,False,mono,False,18,no,white,no,,no,768,1080,1920,1,1,540541,3.9.1,a47ee561-4ea2-80d4-f47b-548d9201c9ec,osweb,0,shape,osweb,,,,3,4,2,1,,osweb,2.1.0,https://jatos.mindprobe.eu,1,1064,1904,1,1,1,0,0,0,1,0,a,blue,d,space,2,a,cross,1973,15380,10041,1973,2,osweb,8,8,8,8,1040,1920,24,1080,24,0,0,1920,,,0,0,1718441445590,circle,cross,star,triangle,1024,2,48000,-16,experiment,,1,odd,Win32,55,158021,160001,147602,69731,160511,39621,55003,158021,158020,158020,160511,Wisconsin Card Sorting Test,21,73301,33,1024
1,0,62,62,2222,2222,#3d3846,Mozilla,Netscape,"5.0 (Windows NT 10.0; Win64; x64) AppleWebKit/537.36 (KHTML, like Gecko) Chrome/126.0.0.0 Safari/537.36 Edg/126.0.0.0",osweb,osweb,0,green,red,blue,yellow,osweb,0,0,0,d,0,33,33,0,0,33,0,0,33,0,0,0,0,0,0,0,33,33,33,33,33,0,0,15-06-24,15-06-24,13:47:25,Sat Jun 15 2024 13:47:25 GMT+0200 (Mitteleuropäische Sommerzeit),,,The main experiment item,1,False,0,0,C:\Users\maalt\OneDrive - Universität Wien\Dokumente\Uni\Psychologie\8. Semester\Bachelorarbeit\Experimente\Winsconsin\osweb-version,0,0,0,False,mono,False,18,no,white,no,,no,768,1080,1920,1,1,540541,3.9.1,a47ee561-4ea2-80d4-f47b-548d9201c9ec,osweb,0,shape,osweb,,,,4,3,1,2,,osweb,2.1.0,https://jatos.mindprobe.eu,1,1064,1904,1,0,1,1,0,0,1,0,c,blue,d,space,4,c,triangle,2248,15380,10041,2248,2,osweb,8,8,8,8,1040,1920,24,1080,24,0,0,1920,,,0,0,1718441445590,cross,circle,star,triangle,1024,2,48000,-16,experiment,,1,odd,Win32,55,160522,160001,162771,69731,163273,39621,55003,160522,160518,160519,163272,Wisconsin Card Sorting Test,21,75549,34,1024
1,0,63,63,2212,2212,#3d3846,Mozilla,Netscape,"5.0 (Windows NT 10.0; Win64; x64) AppleWebKit/537.36 (KHTML, like Gecko) Chrome/126.0.0.0 Safari/537.36 Edg/126.0.0.0",osweb,osweb,0,red,green,yellow,blue,osweb,1,1,1,b,0,34,34,0,0,34,0,0,34,0,0,0,0,0,0,0,34,34,34,34,34,0,0,15-06-24,15-06-24,13:47:25,Sat Jun 15 2024 13:47:25 GMT+0200 (Mitteleuropäische Sommerzeit),,,The main experiment item,1,False,0,0,C:\Users\maalt\OneDrive - Universität Wien\Dokumente\Uni\Psychologie\8. Semester\Bachelorarbeit\Experimente\Winsconsin\osweb-version,0,0,0,False,mono,False,18,no,white,no,,no,768,1080,1920,1,1,540541,3.9.1,a47ee561-4ea2-80d4-f47b-548d9201c9ec,osweb,0,shape,osweb,,,,1,3,4,2,,osweb,2.1.0,https://jatos.mindprobe.eu,1,1064,1904,1,1,0,1,0,0,1,0,b,red,d,space,2,b,star,1862,15380,10041,1862,2,osweb,8,8,8,8,1040,1920,24,1080,24,0,0,1920,,,0,0,1718441445590,circle,star,cross,triangle,1024,2,48000,-16,experiment,,1,odd,Win32,55,163284,165155,162771,69731,165665,39621,55003,163285,163281,163281,165664,Wisconsin Card Sorting Test,22,77411,35,1024
1,0,64,64,2186,2186,#3d3846,Mozilla,Netscape,"5.0 (Windows NT 10.0; Win64; x64) AppleWebKit/537.36 (KHTML, like Gecko) Chrome/126.0.0.0 Safari/537.36 Edg/126.0.0.0",osweb,osweb,0,red,yellow,green,blue,osweb,1,2,1,b,0,35,35,0,0,35,0,0,35,0,0,0,0,0,0,0,35,35,35,35,35,0,0,15-06-24,15-06-24,13:47:25,Sat Jun 15 2024 13:47:25 GMT+0200 (Mitteleuropäische Sommerzeit),,,The main experiment item,1,False,0,0,C:\Users\maalt\OneDrive - Universität Wien\Dokumente\Uni\Psychologie\8. Semester\Bachelorarbeit\Experimente\Winsconsin\osweb-version,0,0,0,False,mono,False,18,no,white,no,,no,768,1080,1920,1,1,540541,3.9.1,a47ee561-4ea2-80d4-f47b-548d9201c9ec,osweb,0,shape,osweb,,,,4,3,2,1,,osweb,2.1.0,https://jatos.mindprobe.eu,1,1064,1904,1,1,1,0,0,0,1,0,b,green,d,space,4,b,cross,1296,15380,10041,1296,2,osweb,8,8,8,8,1040,1920,24,1080,24,0,0,1920,,,0,0,1718441445590,triangle,cross,circle,star,1024,2,48000,-16,experiment,,1,odd,Win32,55,165674,166975,162771,69731,167486,39621,55003,165674,165672,165672,167486,Wisconsin Card Sorting Test,23,78707,36,1024
1,0,65,65,2177,2177,#3d3846,Mozilla,Netscape,"5.0 (Windows NT 10.0; Win64; x64) AppleWebKit/537.36 (KHTML, like Gecko) Chrome/126.0.0.0 Safari/537.36 Edg/126.0.0.0",osweb,osweb,0,green,blue,yellow,red,osweb,1,3,1,a,0,36,36,0,0,36,0,0,36,0,0,0,0,0,0,0,36,36,36,36,36,0,0,15-06-24,15-06-24,13:47:25,Sat Jun 15 2024 13:47:25 GMT+0200 (Mitteleuropäische Sommerzeit),,,The main experiment item,1,False,0,0,C:\Users\maalt\OneDrive - Universität Wien\Dokumente\Uni\Psychologie\8. Semester\Bachelorarbeit\Experimente\Winsconsin\osweb-version,0,0,0,False,mono,False,18,no,white,no,,no,768,1080,1920,1,1,540541,3.9.1,a47ee561-4ea2-80d4-f47b-548d9201c9ec,osweb,0,shape,osweb,,,,1,4,3,2,,osweb,2.1.0,https://jatos.mindprobe.eu,1,1064,1904,1,1,0,1,0,0,1,0,a,blue,d,space,2,a,star,1857,15380,10041,1857,2,osweb,8,8,8,8,1040,1920,24,1080,24,0,0,1920,,,0,0,1718441445590,star,circle,triangle,cross,1024,2,48000,-16,experiment,,1,odd,Win32,55,167497,169357,162771,69731,169868,39621,55003,167497,167493,167493,169867,Wisconsin Card Sorting Test,24,80564,37,1024
1,0,66,66,2188,2188,#3d3846,Mozilla,Netscape,"5.0 (Windows NT 10.0; Win64; x64) AppleWebKit/537.36 (KHTML, like Gecko) Chrome/126.0.0.0 Safari/537.36 Edg/126.0.0.0",osweb,osweb,0,yellow,red,green,blue,osweb,1,4,1,b,0,37,37,0,0,37,0,0,37,0,0,0,0,0,0,0,37,37,37,37,37,0,0,15-06-24,15-06-24,13:47:25,Sat Jun 15 2024 13:47:25 GMT+0200 (Mitteleuropäische Sommerzeit),,,The main experiment item,1,False,0,0,C:\Users\maalt\OneDrive - Universität Wien\Dokumente\Uni\Psychologie\8. Semester\Bachelorarbeit\Experimente\Winsconsin\osweb-version,0,0,0,False,mono,False,18,no,white,no,,no,768,1080,1920,1,1,540541,3.9.1,a47ee561-4ea2-80d4-f47b-548d9201c9ec,osweb,0,shape,osweb,,,,1,4,3,2,,osweb,2.1.0,https://jatos.mindprobe.eu,1,1064,1904,1,1,1,0,0,0,1,0,b,green,d,space,1,b,cross,2572,15380,10041,2572,2,osweb,8,8,8,8,1040,1920,24,1080,24,0,0,1920,,,0,0,1718441445590,triangle,cross,star,circle,1024,2,48000,-16,experiment,,1,odd,Win32,55,169889,172470,162771,69731,172979,39621,55003,169889,169888,169888,172979,Wisconsin Card Sorting Test,25,83136,38,1024
1,0,67,67,2175,2175,#3d3846,Mozilla,Netscape,"5.0 (Windows NT 10.0; Win64; x64) AppleWebKit/537.36 (KHTML, like Gecko) Chrome/126.0.0.0 Safari/537.36 Edg/126.0.0.0",osweb,osweb,0,green,yellow,red,blue,osweb,1,0,1,a,0,38,38,0,0,38,0,0,38,0,0,0,0,0,0,0,38,38,38,38,38,0,0,15-06-24,15-06-24,13:47:25,Sat Jun 15 2024 13:47:25 GMT+0200 (Mitteleuropäische Sommerzeit),,,The main experiment item,1,False,0,0,C:\Users\maalt\OneDrive - Universität Wien\Dokumente\Uni\Psychologie\8. Semester\Bachelorarbeit\Experimente\Winsconsin\osweb-version,0,0,0,False,mono,False,18,no,white,no,,no,768,1080,1920,1,1,540541,3.9.1,a47ee561-4ea2-80d4-f47b-548d9201c9ec,osweb,0,color,osweb,,,,4,3,1,2,,osweb,2.1.0,https://jatos.mindprobe.eu,1,1064,1904,1,1,1,0,0,0,1,0,a,red,d,space,3,a,triangle,1677,15380,10041,1677,2,osweb,8,8,8,8,1040,1920,24,1080,24,0,0,1920,,,0,0,1718441445590,triangle,star,circle,cross,1024,2,48000,-16,experiment,,1,odd,Win32,55,172989,174671,162771,69731,175182,39621,55003,172989,172988,172988,175181,Wisconsin Card Sorting Test,26,84813,39,1024
1,0,65,65,2184,2184,#3d3846,Mozilla,Netscape,"5.0 (Windows NT 10.0; Win64; x64) AppleWebKit/537.36 (KHTML, like Gecko) Chrome/126.0.0.0 Safari/537.36 Edg/126.0.0.0",osweb,osweb,0,red,green,yellow,blue,osweb,0,0,0,d,0,39,39,0,0,39,0,0,39,0,0,0,0,0,0,0,39,39,39,39,39,0,0,15-06-24,15-06-24,13:47:25,Sat Jun 15 2024 13:47:25 GMT+0200 (Mitteleuropäische Sommerzeit),,,The main experiment item,1,False,0,0,C:\Users\maalt\OneDrive - Universität Wien\Dokumente\Uni\Psychologie\8. Semester\Bachelorarbeit\Experimente\Winsconsin\osweb-version,0,0,0,False,mono,False,18,no,white,no,,no,768,1080,1920,1,1,540541,3.9.1,a47ee561-4ea2-80d4-f47b-548d9201c9ec,osweb,0,color,osweb,,,,2,4,3,1,,osweb,2.1.0,https://jatos.mindprobe.eu,1,1064,1904,1,0,1,1,0,0,1,0,a,blue,d,space,3,a,triangle,2565,15380,10041,2565,2,osweb,8,8,8,8,1040,1920,24,1080,24,0,0,1920,,,0,0,1718441445590,triangle,cross,star,circle,1024,2,48000,-16,experiment,,1,odd,Win32,55,175191,174671,177763,69731,178273,39621,55003,175191,175190,175190,178273,Wisconsin Card Sorting Test,26,87378,40,1024
1,0,66,66,2208,2208,#3d3846,Mozilla,Netscape,"5.0 (Windows NT 10.0; Win64; x64) AppleWebKit/537.36 (KHTML, like Gecko) Chrome/126.0.0.0 Safari/537.36 Edg/126.0.0.0",osweb,osweb,0,green,yellow,red,blue,osweb,1,1,1,a,0,40,40,0,0,40,0,0,40,0,0,0,0,0,0,0,40,40,40,40,40,0,0,15-06-24,15-06-24,13:47:25,Sat Jun 15 2024 13:47:25 GMT+0200 (Mitteleuropäische Sommerzeit),,,The main experiment item,1,False,0,0,C:\Users\maalt\OneDrive - Universität Wien\Dokumente\Uni\Psychologie\8. Semester\Bachelorarbeit\Experimente\Winsconsin\osweb-version,0,0,0,False,mono,False,18,no,white,no,,no,768,1080,1920,1,1,540541,3.9.1,a47ee561-4ea2-80d4-f47b-548d9201c9ec,osweb,0,color,osweb,,,,1,3,2,4,,osweb,2.1.0,https://jatos.mindprobe.eu,1,1064,1904,1,1,1,0,0,0,1,0,a,green,d,space,2,a,triangle,3133,15380,10041,3133,2,osweb,8,8,8,8,1040,1920,24,1080,24,0,0,1920,,,0,0,1718441445590,cross,triangle,circle,star,1024,2,48000,-16,experiment,,1,odd,Win32,55,178284,181425,177763,69731,181935,39621,55003,178285,178282,178282,181935,Wisconsin Card Sorting Test,27,90511,41,1024
1,0,64,64,2183,2183,#3d3846,Mozilla,Netscape,"5.0 (Windows NT 10.0; Win64; x64) AppleWebKit/537.36 (KHTML, like Gecko) Chrome/126.0.0.0 Safari/537.36 Edg/126.0.0.0",osweb,osweb,0,yellow,green,blue,red,osweb,0,0,0,d,0,41,41,0,0,41,0,0,41,0,0,0,0,0,0,0,41,41,41,41,41,0,0,15-06-24,15-06-24,13:47:25,Sat Jun 15 2024 13:47:25 GMT+0200 (Mitteleuropäische Sommerzeit),,,The main experiment item,1,False,0,0,C:\Users\maalt\OneDrive - Universität Wien\Dokumente\Uni\Psychologie\8. Semester\Bachelorarbeit\Experimente\Winsconsin\osweb-version,0,0,0,False,mono,False,18,no,white,no,,no,768,1080,1920,1,1,540541,3.9.1,a47ee561-4ea2-80d4-f47b-548d9201c9ec,osweb,0,color,osweb,,,,1,4,3,2,,osweb,2.1.0,https://jatos.mindprobe.eu,1,1064,1904,1,1,0,1,0,0,1,0,b,red,d,space,4,b,cross,1195,15380,10041,1195,2,osweb,8,8,8,8,1040,1920,24,1080,24,0,0,1920,,,0,0,1718441445590,cross,triangle,star,circle,1024,2,48000,-16,experiment,,1,odd,Win32,55,181943,181425,183147,69731,183657,39621,55003,181943,181942,181942,183657,Wisconsin Card Sorting Test,27,91706,42,1024
1,0,63,63,2233,2233,#3d3846,Mozilla,Netscape,"5.0 (Windows NT 10.0; Win64; x64) AppleWebKit/537.36 (KHTML, like Gecko) Chrome/126.0.0.0 Safari/537.36 Edg/126.0.0.0",osweb,osweb,0,red,blue,green,yellow,osweb,0,0,0,b,0,42,42,0,0,42,0,0,42,0,0,0,0,0,0,0,42,42,42,42,42,0,0,15-06-24,15-06-24,13:47:25,Sat Jun 15 2024 13:47:25 GMT+0200 (Mitteleuropäische Sommerzeit),,,The main experiment item,1,False,0,0,C:\Users\maalt\OneDrive - Universität Wien\Dokumente\Uni\Psychologie\8. Semester\Bachelorarbeit\Experimente\Winsconsin\osweb-version,0,0,0,False,mono,False,18,no,white,no,,no,768,1080,1920,1,1,540541,3.9.1,a47ee561-4ea2-80d4-f47b-548d9201c9ec,osweb,0,color,osweb,,,,1,3,4,2,,osweb,2.1.0,https://jatos.mindprobe.eu,1,1064,1904,1,1,0,1,0,0,1,0,d,blue,d,space,1,d,triangle,4308,15380,10041,4308,2,osweb,8,8,8,8,1040,1920,24,1080,24,0,0,1920,,,0,0,1718441445590,circle,cross,star,triangle,1024,2,48000,-16,experiment,,1,odd,Win32,55,183670,181425,187979,69731,188480,39621,55003,183670,183669,183669,188480,Wisconsin Card Sorting Test,27,96014,43,1024
1,0,61,61,2245,2245,#3d3846,Mozilla,Netscape,"5.0 (Windows NT 10.0; Win64; x64) AppleWebKit/537.36 (KHTML, like Gecko) Chrome/126.0.0.0 Safari/537.36 Edg/126.0.0.0",osweb,osweb,0,yellow,red,green,blue,osweb,0,0,0,b,0,43,43,0,0,43,0,0,43,0,0,0,0,0,0,0,43,43,43,43,43,0,0,15-06-24,15-06-24,13:47:25,Sat Jun 15 2024 13:47:25 GMT+0200 (Mitteleuropäische Sommerzeit),,,The main experiment item,1,False,0,0,C:\Users\maalt\OneDrive - Universität Wien\Dokumente\Uni\Psychologie\8. Semester\Bachelorarbeit\Experimente\Winsconsin\osweb-version,0,0,0,False,mono,False,18,no,white,no,,no,768,1080,1920,1,1,540541,3.9.1,a47ee561-4ea2-80d4-f47b-548d9201c9ec,osweb,0,color,osweb,,,,4,1,2,3,,osweb,2.1.0,https://jatos.mindprobe.eu,1,1064,1904,1,1,1,0,0,0,1,0,a,red,d,space,2,a,triangle,2772,15380,10041,2772,2,osweb,8,8,8,8,1040,1920,24,1080,24,0,0,1920,,,0,0,1718441445590,triangle,star,circle,cross,1024,2,48000,-16,experiment,,1,odd,Win32,55,188494,181425,191273,69731,191782,39621,55003,188494,188493,188493,191782,Wisconsin Card Sorting Test,27,98786,44,1024
1,0,62,62,2230,2230,#3d3846,Mozilla,Netscape,"5.0 (Windows NT 10.0; Win64; x64) AppleWebKit/537.36 (KHTML, like Gecko) Chrome/126.0.0.0 Safari/537.36 Edg/126.0.0.0",osweb,osweb,0,blue,green,yellow,red,osweb,1,1,1,c,0,44,44,0,0,44,0,0,44,0,0,0,0,0,0,0,44,44,44,44,44,0,0,15-06-24,15-06-24,13:47:25,Sat Jun 15 2024 13:47:25 GMT+0200 (Mitteleuropäische Sommerzeit),,,The main experiment item,1,False,0,0,C:\Users\maalt\OneDrive - Universität Wien\Dokumente\Uni\Psychologie\8. Semester\Bachelorarbeit\Experimente\Winsconsin\osweb-version,0,0,0,False,mono,False,18,no,white,no,,no,768,1080,1920,1,1,540541,3.9.1,a47ee561-4ea2-80d4-f47b-548d9201c9ec,osweb,0,color,osweb,,,,3,1,2,4,,osweb,2.1.0,https://jatos.mindprobe.eu,1,1064,1904,1,0,1,1,0,0,1,0,c,yellow,d,space,4,c,star,1577,15380,10041,1577,2,osweb,8,8,8,8,1040,1920,24,1080,24,0,0,1920,,,0,0,1718441445590,star,triangle,cross,circle,1024,2,48000,-16,experiment,,1,odd,Win32,55,191801,193384,191273,69731,193894,39621,55003,191801,191792,191792,193894,Wisconsin Card Sorting Test,28,100363,45,1024
1,0,63,63,2236,2236,#3d3846,Mozilla,Netscape,"5.0 (Windows NT 10.0; Win64; x64) AppleWebKit/537.36 (KHTML, like Gecko) Chrome/126.0.0.0 Safari/537.36 Edg/126.0.0.0",osweb,osweb,0,yellow,green,blue,red,osweb,1,2,1,c,0,45,45,0,0,45,0,0,45,0,0,0,0,0,0,0,45,45,45,45,45,0,0,15-06-24,15-06-24,13:47:25,Sat Jun 15 2024 13:47:25 GMT+0200 (Mitteleuropäische Sommerzeit),,,The main experiment item,1,False,0,0,C:\Users\maalt\OneDrive - Universität Wien\Dokumente\Uni\Psychologie\8. Semester\Bachelorarbeit\Experimente\Winsconsin\osweb-version,0,0,0,False,mono,False,18,no,white,no,,no,768,1080,1920,1,1,540541,3.9.1,a47ee561-4ea2-80d4-f47b-548d9201c9ec,osweb,0,color,osweb,,,,3,2,1,4,,osweb,2.1.0,https://jatos.mindprobe.eu,1,1064,1904,1,1,1,0,0,0,1,0,c,blue,d,space,3,c,circle,2483,15380,10041,2483,2,osweb,8,8,8,8,1040,1920,24,1080,24,0,0,1920,,,0,0,1718441445590,star,circle,cross,triangle,1024,2,48000,-16,experiment,,1,odd,Win32,55,193905,196396,191273,69731,196905,39621,55003,193905,193902,193902,196905,Wisconsin Card Sorting Test,29,102846,46,1024
1,0,64,64,2261,2261,#3d3846,Mozilla,Netscape,"5.0 (Windows NT 10.0; Win64; x64) AppleWebKit/537.36 (KHTML, like Gecko) Chrome/126.0.0.0 Safari/537.36 Edg/126.0.0.0",osweb,osweb,0,blue,yellow,green,red,osweb,1,3,1,c,0,46,46,0,0,46,0,0,46,0,0,0,0,0,0,0,46,46,46,46,46,0,0,15-06-24,15-06-24,13:47:25,Sat Jun 15 2024 13:47:25 GMT+0200 (Mitteleuropäische Sommerzeit),,,The main experiment item,1,False,0,0,C:\Users\maalt\OneDrive - Universität Wien\Dokumente\Uni\Psychologie\8. Semester\Bachelorarbeit\Experimente\Winsconsin\osweb-version,0,0,0,False,mono,False,18,no,white,no,,no,768,1080,1920,1,1,540541,3.9.1,a47ee561-4ea2-80d4-f47b-548d9201c9ec,osweb,0,color,osweb,,,,3,4,2,1,,osweb,2.1.0,https://jatos.mindprobe.eu,1,1064,1904,1,0,1,1,0,0,1,0,c,green,d,space,1,c,star,3439,15380,10041,3439,2,osweb,8,8,8,8,1040,1920,24,1080,24,0,0,1920,,,0,0,1718441445590,star,circle,triangle,cross,1024,2,48000,-16,experiment,,1,odd,Win32,55,196916,200359,191273,69731,200868,39621,55003,196916,196913,196913,200868,Wisconsin Card Sorting Test,30,106285,47,1024
1,0,65,65,2266,2266,#3d3846,Mozilla,Netscape,"5.0 (Windows NT 10.0; Win64; x64) AppleWebKit/537.36 (KHTML, like Gecko) Chrome/126.0.0.0 Safari/537.36 Edg/126.0.0.0",osweb,osweb,0,blue,yellow,red,green,osweb,1,4,1,d,0,47,47,0,0,47,0,0,47,0,0,0,0,0,0,0,47,47,47,47,47,0,0,15-06-24,15-06-24,13:47:25,Sat Jun 15 2024 13:47:25 GMT+0200 (Mitteleuropäische Sommerzeit),,,The main experiment item,1,False,0,0,C:\Users\maalt\OneDrive - Universität Wien\Dokumente\Uni\Psychologie\8. Semester\Bachelorarbeit\Experimente\Winsconsin\osweb-version,0,0,0,False,mono,False,18,no,white,no,,no,768,1080,1920,1,1,540541,3.9.1,a47ee561-4ea2-80d4-f47b-548d9201c9ec,osweb,0,color,osweb,,,,3,1,2,4,,osweb,2.1.0,https://jatos.mindprobe.eu,1,1064,1904,1,0,1,1,0,0,1,0,d,green,d,space,3,d,star,2496,15380,10041,2496,2,osweb,8,8,8,8,1040,1920,24,1080,24,0,0,1920,,,0,0,1718441445590,triangle,cross,star,circle,1024,2,48000,-16,experiment,,1,odd,Win32,55,200876,203381,191273,69731,203891,39621,55003,200876,200875,200875,203891,Wisconsin Card Sorting Test,31,108781,48,1024
1,0,63,63,2277,2277,#3d3846,Mozilla,Netscape,"5.0 (Windows NT 10.0; Win64; x64) AppleWebKit/537.36 (KHTML, like Gecko) Chrome/126.0.0.0 Safari/537.36 Edg/126.0.0.0",osweb,osweb,0,green,red,yellow,blue,osweb,0,0,0,d,0,48,48,0,0,48,0,0,48,0,0,0,0,0,0,0,48,48,48,48,48,0,0,15-06-24,15-06-24,13:47:25,Sat Jun 15 2024 13:47:25 GMT+0200 (Mitteleuropäische Sommerzeit),,,The main experiment item,1,False,0,0,C:\Users\maalt\OneDrive - Universität Wien\Dokumente\Uni\Psychologie\8. Semester\Bachelorarbeit\Experimente\Winsconsin\osweb-version,0,0,0,False,mono,False,18,no,white,no,,no,768,1080,1920,1,1,540541,3.9.1,a47ee561-4ea2-80d4-f47b-548d9201c9ec,osweb,0,color,osweb,,,,2,4,3,1,,osweb,2.1.0,https://jatos.mindprobe.eu,1,1064,1904,1,1,0,1,0,0,1,0,a,blue,d,space,4,a,star,2814,15380,10041,2814,2,osweb,8,8,8,8,1040,1920,24,1080,24,0,0,1920,,,0,0,1718441445590,star,circle,cross,triangle,1024,2,48000,-16,experiment,,1,odd,Win32,55,203912,203381,206734,69731,207243,39621,55003,203912,203910,203910,207242,Wisconsin Card Sorting Test,31,111595,49,1024
1,0,64,64,2281,2281,#3d3846,Mozilla,Netscape,"5.0 (Windows NT 10.0; Win64; x64) AppleWebKit/537.36 (KHTML, like Gecko) Chrome/126.0.0.0 Safari/537.36 Edg/126.0.0.0",osweb,osweb,0,red,green,yellow,blue,osweb,1,1,1,b,0,49,49,0,0,49,0,0,49,0,0,0,0,0,0,0,49,49,49,49,49,0,0,15-06-24,15-06-24,13:47:25,Sat Jun 15 2024 13:47:25 GMT+0200 (Mitteleuropäische Sommerzeit),,,The main experiment item,1,False,0,0,C:\Users\maalt\OneDrive - Universität Wien\Dokumente\Uni\Psychologie\8. Semester\Bachelorarbeit\Experimente\Winsconsin\osweb-version,0,0,0,False,mono,False,18,no,white,no,,no,768,1080,1920,1,1,540541,3.9.1,a47ee561-4ea2-80d4-f47b-548d9201c9ec,osweb,0,color,osweb,,,,3,4,2,1,,osweb,2.1.0,https://jatos.mindprobe.eu,1,1064,1904,1,1,1,0,0,0,1,0,b,green,d,space,2,b,cross,2478,15380,10041,2478,2,osweb,8,8,8,8,1040,1920,24,1080,24,0,0,1920,,,0,0,1718441445590,cross,triangle,circle,star,1024,2,48000,-16,experiment,,1,odd,Win32,55,207252,209736,206734,69731,210244,39621,55003,207252,207248,207248,210244,Wisconsin Card Sorting Test,32,114073,50,1024
1,0,63,63,2296,2296,#3d3846,Mozilla,Netscape,"5.0 (Windows NT 10.0; Win64; x64) AppleWebKit/537.36 (KHTML, like Gecko) Chrome/126.0.0.0 Safari/537.36 Edg/126.0.0.0",osweb,osweb,0,green,blue,yellow,red,osweb,0,0,0,b,0,50,50,0,0,50,0,0,50,0,0,0,0,0,0,0,50,50,50,50,50,0,0,15-06-24,15-06-24,13:47:25,Sat Jun 15 2024 13:47:25 GMT+0200 (Mitteleuropäische Sommerzeit),,,The main experiment item,1,False,0,0,C:\Users\maalt\OneDrive - Universität Wien\Dokumente\Uni\Psychologie\8. Semester\Bachelorarbeit\Experimente\Winsconsin\osweb-version,0,0,0,False,mono,False,18,no,white,no,,no,768,1080,1920,1,1,540541,3.9.1,a47ee561-4ea2-80d4-f47b-548d9201c9ec,osweb,0,color,osweb,,,,1,4,3,2,,osweb,2.1.0,https://jatos.mindprobe.eu,1,1064,1904,1,1,1,0,0,0,1,0,c,blue,d,space,1,c,star,3033,15380,10041,3033,2,osweb,8,8,8,8,1040,1920,24,1080,24,0,0,1920,,,0,0,1718441445590,cross,triangle,star,circle,1024,2,48000,-16,experiment,,1,odd,Win32,55,210257,209736,213297,69731,213808,39621,55003,210257,210256,210256,213808,Wisconsin Card Sorting Test,32,117106,51,1024
1,0,63,63,2281,2281,#3d3846,Mozilla,Netscape,"5.0 (Windows NT 10.0; Win64; x64) AppleWebKit/537.36 (KHTML, like Gecko) Chrome/126.0.0.0 Safari/537.36 Edg/126.0.0.0",osweb,osweb,0,yellow,red,blue,green,osweb,1,1,1,c,0,51,51,0,0,51,0,0,51,0,0,0,0,0,0,0,51,51,51,51,51,0,0,15-06-24,15-06-24,13:47:25,Sat Jun 15 2024 13:47:25 GMT+0200 (Mitteleuropäische Sommerzeit),,,The main experiment item,1,False,0,0,C:\Users\maalt\OneDrive - Universität Wien\Dokumente\Uni\Psychologie\8. Semester\Bachelorarbeit\Experimente\Winsconsin\osweb-version,0,0,0,False,mono,False,18,no,white,no,,no,768,1080,1920,1,1,540541,3.9.1,a47ee561-4ea2-80d4-f47b-548d9201c9ec,osweb,0,color,osweb,,,,3,2,4,1,,osweb,2.1.0,https://jatos.mindprobe.eu,1,1064,1904,0,1,1,1,0,0,1,0,c,blue,d,space,1,c,circle,1526,15380,10041,1526,2,osweb,8,8,8,8,1040,1920,24,1080,24,0,0,1920,,,0,0,1718441445590,star,circle,cross,triangle,1024,2,48000,-16,experiment,,1,odd,Win32,55,213819,215349,213297,69731,215860,39621,55003,213819,213818,213818,215859,Wisconsin Card Sorting Test,33,118632,52,1024
1,0,64,64,2282,2282,#3d3846,Mozilla,Netscape,"5.0 (Windows NT 10.0; Win64; x64) AppleWebKit/537.36 (KHTML, like Gecko) Chrome/126.0.0.0 Safari/537.36 Edg/126.0.0.0",osweb,osweb,0,green,blue,yellow,red,osweb,1,2,1,d,0,52,52,0,0,52,0,0,52,0,0,0,0,0,0,0,52,52,52,52,52,0,0,15-06-24,15-06-24,13:47:25,Sat Jun 15 2024 13:47:25 GMT+0200 (Mitteleuropäische Sommerzeit),,,The main experiment item,1,False,0,0,C:\Users\maalt\OneDrive - Universität Wien\Dokumente\Uni\Psychologie\8. Semester\Bachelorarbeit\Experimente\Winsconsin\osweb-version,0,0,0,False,mono,False,18,no,white,no,,no,768,1080,1920,1,1,540541,3.9.1,a47ee561-4ea2-80d4-f47b-548d9201c9ec,osweb,0,color,osweb,,,,1,2,3,4,,osweb,2.1.0,https://jatos.mindprobe.eu,1,1064,1904,0,1,1,1,0,0,1,0,d,red,d,space,3,d,circle,2334,15380,10041,2334,2,osweb,8,8,8,8,1040,1920,24,1080,24,0,0,1920,,,0,0,1718441445590,triangle,circle,cross,star,1024,2,48000,-16,experiment,,1,odd,Win32,55,215879,218222,213297,69731,218732,39621,55003,215879,215876,215876,218731,Wisconsin Card Sorting Test,34,120966,53,1024
1,0,63,63,2285,2285,#3d3846,Mozilla,Netscape,"5.0 (Windows NT 10.0; Win64; x64) AppleWebKit/537.36 (KHTML, like Gecko) Chrome/126.0.0.0 Safari/537.36 Edg/126.0.0.0",osweb,osweb,0,red,yellow,blue,green,osweb,0,0,0,b,0,53,53,0,0,53,0,0,53,0,0,0,0,0,0,0,53,53,53,53,53,0,0,15-06-24,15-06-24,13:47:25,Sat Jun 15 2024 13:47:25 GMT+0200 (Mitteleuropäische Sommerzeit),,,The main experiment item,1,False,0,0,C:\Users\maalt\OneDrive - Universität Wien\Dokumente\Uni\Psychologie\8. Semester\Bachelorarbeit\Experimente\Winsconsin\osweb-version,0,0,0,False,mono,False,18,no,white,no,,no,768,1080,1920,1,1,540541,3.9.1,a47ee561-4ea2-80d4-f47b-548d9201c9ec,osweb,0,color,osweb,,,,1,4,2,3,,osweb,2.1.0,https://jatos.mindprobe.eu,1,1064,1904,0,1,1,1,0,0,1,0,d,yellow,d,space,2,d,cross,2405,15380,10041,2405,2,osweb,8,8,8,8,1040,1920,24,1080,24,0,0,1920,,,0,0,1718441445590,triangle,star,circle,cross,1024,2,48000,-16,experiment,,1,odd,Win32,55,218741,218222,221154,69731,221664,39621,55003,218741,218739,218739,221663,Wisconsin Card Sorting Test,34,123371,54,1024
1,0,64,64,2290,2290,#3d3846,Mozilla,Netscape,"5.0 (Windows NT 10.0; Win64; x64) AppleWebKit/537.36 (KHTML, like Gecko) Chrome/126.0.0.0 Safari/537.36 Edg/126.0.0.0",osweb,osweb,0,green,blue,red,yellow,osweb,1,1,1,c,0,54,54,0,0,54,0,0,54,0,0,0,0,0,0,0,54,54,54,54,54,0,0,15-06-24,15-06-24,13:47:25,Sat Jun 15 2024 13:47:25 GMT+0200 (Mitteleuropäische Sommerzeit),,,The main experiment item,1,False,0,0,C:\Users\maalt\OneDrive - Universität Wien\Dokumente\Uni\Psychologie\8. Semester\Bachelorarbeit\Experimente\Winsconsin\osweb-version,0,0,0,False,mono,False,18,no,white,no,,no,768,1080,1920,1,1,540541,3.9.1,a47ee561-4ea2-80d4-f47b-548d9201c9ec,osweb,0,color,osweb,,,,3,4,1,2,,osweb,2.1.0,https://jatos.mindprobe.eu,1,1064,1904,0,1,1,1,0,0,1,0,c,red,d,space,4,c,cross,2554,15380,10041,2554,2,osweb,8,8,8,8,1040,1920,24,1080,24,0,0,1920,,,0,0,1718441445590,circle,star,triangle,cross,1024,2,48000,-16,experiment,,1,odd,Win32,55,221673,224235,221154,69731,224746,39621,55003,221674,221671,221671,224745,Wisconsin Card Sorting Test,35,125925,55,1024
1,0,64,64,2276,2276,#3d3846,Mozilla,Netscape,"5.0 (Windows NT 10.0; Win64; x64) AppleWebKit/537.36 (KHTML, like Gecko) Chrome/126.0.0.0 Safari/537.36 Edg/126.0.0.0",osweb,osweb,0,red,yellow,green,blue,osweb,1,2,1,a,0,55,55,0,0,55,0,0,55,0,0,0,0,0,0,0,55,55,55,55,55,0,0,15-06-24,15-06-24,13:47:25,Sat Jun 15 2024 13:47:25 GMT+0200 (Mitteleuropäische Sommerzeit),,,The main experiment item,1,False,0,0,C:\Users\maalt\OneDrive - Universität Wien\Dokumente\Uni\Psychologie\8. Semester\Bachelorarbeit\Experimente\Winsconsin\osweb-version,0,0,0,False,mono,False,18,no,white,no,,no,768,1080,1920,1,1,540541,3.9.1,a47ee561-4ea2-80d4-f47b-548d9201c9ec,osweb,0,color,osweb,,,,3,1,2,4,,osweb,2.1.0,https://jatos.mindprobe.eu,1,1064,1904,1,1,0,1,0,0,1,0,a,red,d,space,1,a,circle,1551,15380,10041,1551,2,osweb,8,8,8,8,1040,1920,24,1080,24,0,0,1920,,,0,0,1718441445590,cross,star,triangle,circle,1024,2,48000,-16,experiment,,1,odd,Win32,55,224758,226317,221154,69731,226827,39621,55003,224758,224754,224754,226826,Wisconsin Card Sorting Test,36,127476,56,1024
1,0,65,65,2301,2301,#3d3846,Mozilla,Netscape,"5.0 (Windows NT 10.0; Win64; x64) AppleWebKit/537.36 (KHTML, like Gecko) Chrome/126.0.0.0 Safari/537.36 Edg/126.0.0.0",osweb,osweb,0,yellow,red,blue,green,osweb,1,3,1,d,0,56,56,0,0,56,0,0,56,0,0,0,0,0,0,0,56,56,56,56,56,0,0,15-06-24,15-06-24,13:47:25,Sat Jun 15 2024 13:47:25 GMT+0200 (Mitteleuropäische Sommerzeit),,,The main experiment item,1,False,0,0,C:\Users\maalt\OneDrive - Universität Wien\Dokumente\Uni\Psychologie\8. Semester\Bachelorarbeit\Experimente\Winsconsin\osweb-version,0,0,0,False,mono,False,18,no,white,no,,no,768,1080,1920,1,1,540541,3.9.1,a47ee561-4ea2-80d4-f47b-548d9201c9ec,osweb,0,color,osweb,,,,2,1,3,4,,osweb,2.1.0,https://jatos.mindprobe.eu,1,1064,1904,0,1,1,1,0,0,1,0,d,green,d,space,1,d,star,3686,15380,10041,3686,2,osweb,8,8,8,8,1040,1920,24,1080,24,0,0,1920,,,0,0,1718441445590,cross,circle,star,triangle,1024,2,48000,-16,experiment,,1,odd,Win32,55,226835,230529,221154,69731,231039,39621,55003,226835,226834,226834,231039,Wisconsin Card Sorting Test,37,131162,57,1024
1,0,64,64,2292,2292,#3d3846,Mozilla,Netscape,"5.0 (Windows NT 10.0; Win64; x64) AppleWebKit/537.36 (KHTML, like Gecko) Chrome/126.0.0.0 Safari/537.36 Edg/126.0.0.0",osweb,osweb,0,yellow,blue,green,red,osweb,0,0,0,b,0,57,57,0,0,57,0,0,57,0,0,0,0,0,0,0,57,57,57,57,57,0,0,15-06-24,15-06-24,13:47:25,Sat Jun 15 2024 13:47:25 GMT+0200 (Mitteleuropäische Sommerzeit),,,The main experiment item,1,False,0,0,C:\Users\maalt\OneDrive - Universität Wien\Dokumente\Uni\Psychologie\8. Semester\Bachelorarbeit\Experimente\Winsconsin\osweb-version,0,0,0,False,mono,False,18,no,white,no,,no,768,1080,1920,1,1,540541,3.9.1,a47ee561-4ea2-80d4-f47b-548d9201c9ec,osweb,0,color,osweb,,,,3,2,4,1,,osweb,2.1.0,https://jatos.mindprobe.eu,1,1064,1904,1,1,0,1,0,0,1,0,a,blue,d,space,1,a,cross,1764,15380,10041,1764,2,osweb,8,8,8,8,1040,1920,24,1080,24,0,0,1920,,,0,0,1718441445590,cross,star,circle,triangle,1024,2,48000,-16,experiment,,1,odd,Win32,55,231048,230529,232820,69731,233321,39621,55003,231048,231046,231046,233321,Wisconsin Card Sorting Test,37,132926,58,1024
1,0,64,64,2296,2296,#3d3846,Mozilla,Netscape,"5.0 (Windows NT 10.0; Win64; x64) AppleWebKit/537.36 (KHTML, like Gecko) Chrome/126.0.0.0 Safari/537.36 Edg/126.0.0.0",osweb,osweb,0,green,red,yellow,blue,osweb,1,1,1,b,0,58,58,0,0,58,0,0,58,0,0,0,0,0,0,0,58,58,58,58,58,0,0,15-06-24,15-06-24,13:47:25,Sat Jun 15 2024 13:47:25 GMT+0200 (Mitteleuropäische Sommerzeit),,,The main experiment item,1,False,0,0,C:\Users\maalt\OneDrive - Universität Wien\Dokumente\Uni\Psychologie\8. Semester\Bachelorarbeit\Experimente\Winsconsin\osweb-version,0,0,0,False,mono,False,18,no,white,no,,no,768,1080,1920,1,1,540541,3.9.1,a47ee561-4ea2-80d4-f47b-548d9201c9ec,osweb,0,color,osweb,,,,3,4,2,1,,osweb,2.1.0,https://jatos.mindprobe.eu,1,1064,1904,0,1,1,1,0,0,1,0,b,red,d,space,2,b,circle,2545,15380,10041,2545,2,osweb,8,8,8,8,1040,1920,24,1080,24,0,0,1920,,,0,0,1718441445590,triangle,cross,star,circle,1024,2,48000,-16,experiment,,1,odd,Win32,55,233331,235884,232820,69731,236394,39621,55003,233331,233329,233329,236393,Wisconsin Card Sorting Test,38,135471,59,1024
1,0,65,65,2293,2293,#3d3846,Mozilla,Netscape,"5.0 (Windows NT 10.0; Win64; x64) AppleWebKit/537.36 (KHTML, like Gecko) Chrome/126.0.0.0 Safari/537.36 Edg/126.0.0.0",osweb,osweb,0,yellow,blue,red,green,osweb,1,2,1,b,0,59,59,0,0,59,0,0,59,0,0,0,0,0,0,0,59,59,59,59,59,0,0,15-06-24,15-06-24,13:47:25,Sat Jun 15 2024 13:47:25 GMT+0200 (Mitteleuropäische Sommerzeit),,,The main experiment item,1,False,0,0,C:\Users\maalt\OneDrive - Universität Wien\Dokumente\Uni\Psychologie\8. Semester\Bachelorarbeit\Experimente\Winsconsin\osweb-version,0,0,0,False,mono,False,18,no,white,no,,no,768,1080,1920,1,1,540541,3.9.1,a47ee561-4ea2-80d4-f47b-548d9201c9ec,osweb,0,color,osweb,,,,1,3,2,4,,osweb,2.1.0,https://jatos.mindprobe.eu,1,1064,1904,1,1,1,0,0,0,1,0,b,blue,d,space,2,b,star,2124,15380,10041,2124,2,osweb,8,8,8,8,1040,1920,24,1080,24,0,0,1920,,,0,0,1718441445590,star,triangle,circle,cross,1024,2,48000,-16,experiment,,1,odd,Win32,55,236406,238536,232820,69731,239046,39621,55003,236406,236404,236405,239045,Wisconsin Card Sorting Test,39,137595,60,1024
1,0,66,66,2289,2289,#3d3846,Mozilla,Netscape,"5.0 (Windows NT 10.0; Win64; x64) AppleWebKit/537.36 (KHTML, like Gecko) Chrome/126.0.0.0 Safari/537.36 Edg/126.0.0.0",osweb,osweb,0,red,blue,yellow,green,osweb,1,3,1,d,0,60,60,0,0,60,0,0,60,0,0,0,0,0,0,0,60,60,60,60,60,0,0,15-06-24,15-06-24,13:47:25,Sat Jun 15 2024 13:47:25 GMT+0200 (Mitteleuropäische Sommerzeit),,,The main experiment item,1,False,0,0,C:\Users\maalt\OneDrive - Universität Wien\Dokumente\Uni\Psychologie\8. Semester\Bachelorarbeit\Experimente\Winsconsin\osweb-version,0,0,0,False,mono,False,18,no,white,no,,no,768,1080,1920,1,1,540541,3.9.1,a47ee561-4ea2-80d4-f47b-548d9201c9ec,osweb,0,color,osweb,,,,3,4,1,2,,osweb,2.1.0,https://jatos.mindprobe.eu,1,1064,1904,1,0,1,1,0,0,1,0,d,green,d,space,3,d,triangle,2035,15380,10041,2035,2,osweb,8,8,8,8,1040,1920,24,1080,24,0,0,1920,,,0,0,1718441445590,cross,circle,triangle,star,1024,2,48000,-16,experiment,,1,odd,Win32,55,239055,241097,232820,69731,241606,39621,55003,239055,239053,239053,241606,Wisconsin Card Sorting Test,40,139630,61,1024
1,0,66,66,2275,2275,#3d3846,Mozilla,Netscape,"5.0 (Windows NT 10.0; Win64; x64) AppleWebKit/537.36 (KHTML, like Gecko) Chrome/126.0.0.0 Safari/537.36 Edg/126.0.0.0",osweb,osweb,0,green,red,yellow,blue,osweb,1,4,1,d,0,61,61,0,0,61,0,0,61,0,0,0,0,0,0,0,61,61,61,61,61,0,0,15-06-24,15-06-24,13:47:25,Sat Jun 15 2024 13:47:25 GMT+0200 (Mitteleuropäische Sommerzeit),,,The main experiment item,1,False,0,0,C:\Users\maalt\OneDrive - Universität Wien\Dokumente\Uni\Psychologie\8. Semester\Bachelorarbeit\Experimente\Winsconsin\osweb-version,0,0,0,False,mono,False,18,no,white,no,,no,768,1080,1920,1,1,540541,3.9.1,a47ee561-4ea2-80d4-f47b-548d9201c9ec,osweb,0,color,osweb,,,,3,1,4,2,,osweb,2.1.0,https://jatos.mindprobe.eu,1,1064,1904,1,1,0,1,0,0,1,0,d,blue,d,space,1,d,circle,1404,15380,10041,1404,2,osweb,8,8,8,8,1040,1920,24,1080,24,0,0,1920,,,0,0,1718441445590,circle,triangle,star,cross,1024,2,48000,-16,experiment,,1,odd,Win32,55,241614,243027,232820,69731,243529,39621,55003,241614,241612,241612,243528,Wisconsin Card Sorting Test,41,141034,62,1024
1,0,65,65,2271,2271,#3d3846,Mozilla,Netscape,"5.0 (Windows NT 10.0; Win64; x64) AppleWebKit/537.36 (KHTML, like Gecko) Chrome/126.0.0.0 Safari/537.36 Edg/126.0.0.0",osweb,osweb,0,yellow,blue,red,green,osweb,0,0,0,b,0,62,62,0,0,62,0,0,62,0,0,0,0,0,0,0,62,62,62,62,62,0,0,15-06-24,15-06-24,13:47:25,Sat Jun 15 2024 13:47:25 GMT+0200 (Mitteleuropäische Sommerzeit),,,The main experiment item,1,False,0,0,C:\Users\maalt\OneDrive - Universität Wien\Dokumente\Uni\Psychologie\8. Semester\Bachelorarbeit\Experimente\Winsconsin\osweb-version,0,0,0,False,mono,False,18,no,white,no,,no,768,1080,1920,1,1,540541,3.9.1,a47ee561-4ea2-80d4-f47b-548d9201c9ec,osweb,0,color,osweb,,,,3,4,2,1,,osweb,2.1.0,https://jatos.mindprobe.eu,1,1064,1904,0,1,1,1,0,0,1,0,d,blue,d,space,1,d,triangle,2064,15380,10041,2064,2,osweb,8,8,8,8,1040,1920,24,1080,24,0,0,1920,,,0,0,1718441445590,star,circle,triangle,cross,1024,2,48000,-16,experiment,,1,odd,Win32,55,243538,243027,245611,69731,246121,39621,55003,243538,243536,243536,246121,Wisconsin Card Sorting Test,41,143098,63,1024
1,0,64,64,2272,2272,#3d3846,Mozilla,Netscape,"5.0 (Windows NT 10.0; Win64; x64) AppleWebKit/537.36 (KHTML, like Gecko) Chrome/126.0.0.0 Safari/537.36 Edg/126.0.0.0",osweb,osweb,0,yellow,green,red,blue,osweb,0,0,0,d,0,63,63,0,0,63,0,0,63,0,0,0,0,0,0,0,63,63,63,63,63,0,0,15-06-24,15-06-24,13:47:25,Sat Jun 15 2024 13:47:25 GMT+0200 (Mitteleuropäische Sommerzeit),,,The main experiment item,1,False,0,0,C:\Users\maalt\OneDrive - Universität Wien\Dokumente\Uni\Psychologie\8. Semester\Bachelorarbeit\Experimente\Winsconsin\osweb-version,0,0,0,False,mono,False,18,no,white,no,,no,768,1080,1920,1,1,540541,3.9.1,a47ee561-4ea2-80d4-f47b-548d9201c9ec,osweb,0,color,osweb,,,,1,2,3,4,,osweb,2.1.0,https://jatos.mindprobe.eu,1,1064,1904,0,1,1,1,0,0,1,0,c,blue,d,space,2,c,star,2279,15380,10041,2279,2,osweb,8,8,8,8,1040,1920,24,1080,24,0,0,1920,,,0,0,1718441445590,cross,circle,star,triangle,1024,2,48000,-16,experiment,,1,odd,Win32,55,246132,243027,248412,69731,248923,39621,55003,246132,246130,246130,248922,Wisconsin Card Sorting Test,41,145377,64,1024
1,0,0,0,6884,6884,#3d3846,Mozilla,Netscape,"5.0 (X11; Linux x86_64) AppleWebKit/537.36 (KHTML, like Gecko) Chrome/124.0.0.0 Safari/537.36",osweb,osweb,0,blue,yellow,green,red,osweb,0,0,0,c,0,0,0,0,0,0,0,0,0,0,0,0,0,0,0,0,0,0,0,0,0,0,0,06-06-24,06-06-24,11:29:11,Thu Jun 06 2024 11:29:11 GMT+0200 (Central European Summer Time),,,The main experiment item,1,False,0,0,C:\Users\maalt\OneDrive - Universität Wien\Dokumente\Uni\Psychologie\8. Semester\Bachelorarbeit\Experimente\Winsconsin\osweb-version,0,0,0,False,mono,False,18,no,white,no,,no,768,1080,1920,1,1,534453,3.8.6,a47ee561-4ea2-80d4-f47b-548d9201c9ec,osweb,0,number,osweb,,,,4,2,1,3,,osweb,2.1.0,https://jatos.mindprobe.eu,1,1080,1920,1,1,1,0,0,0,1,0,b,blue,a,space,1,b,cross,6884,21738,9141,6884,2,osweb,2560,209,2560,209,1053,1920,24,1080,24,2630,236,1920,,,0,0,1717666209566,star,cross,triangle,circle,1024,2,48000,-16,experiment,,1,odd,Linux x86_64,52,70426,,77313,70395,77830,38038,59778,70427,70423,70423,77829,Wisconsin Card Sorting Test,0,6884,1,1024
1,0,50,50,8986,8986,#3d3846,Mozilla,Netscape,"5.0 (X11; Linux x86_64) AppleWebKit/537.36 (KHTML, like Gecko) Chrome/124.0.0.0 Safari/537.36",osweb,osweb,0,red,green,yellow,blue,osweb,1,1,1,b,0,1,1,0,0,1,0,0,1,0,0,0,0,0,0,0,1,1,1,1,1,0,0,06-06-24,06-06-24,11:29:11,Thu Jun 06 2024 11:29:11 GMT+0200 (Central European Summer Time),,,The main experiment item,1,False,0,0,C:\Users\maalt\OneDrive - Universität Wien\Dokumente\Uni\Psychologie\8. Semester\Bachelorarbeit\Experimente\Winsconsin\osweb-version,0,0,0,False,mono,False,18,no,white,no,,no,768,1080,1920,1,1,534453,3.8.6,a47ee561-4ea2-80d4-f47b-548d9201c9ec,osweb,0,number,osweb,,,,2,4,1,3,,osweb,2.1.0,https://jatos.mindprobe.eu,1,1080,1920,1,1,1,0,0,0,1,0,b,red,a,space,4,b,circle,11087,21738,9141,11087,2,osweb,2560,209,2560,209,1053,1920,24,1080,24,2630,236,1920,,,0,0,1717666209566,star,triangle,circle,cross,1024,2,48000,-16,experiment,,1,odd,Linux x86_64,52,77856,88946,77313,70395,89461,38038,59778,77856,77853,77853,89461,Wisconsin Card Sorting Test,1,17971,2,1024
1,0,67,67,7140,7140,#3d3846,Mozilla,Netscape,"5.0 (X11; Linux x86_64) AppleWebKit/537.36 (KHTML, like Gecko) Chrome/124.0.0.0 Safari/537.36",osweb,osweb,0,yellow,red,blue,green,osweb,1,2,1,c,0,2,2,0,0,2,0,0,2,0,0,0,0,0,0,0,2,2,2,2,2,0,0,06-06-24,06-06-24,11:29:11,Thu Jun 06 2024 11:29:11 GMT+0200 (Central European Summer Time),,,The main experiment item,1,False,0,0,C:\Users\maalt\OneDrive - Universität Wien\Dokumente\Uni\Psychologie\8. Semester\Bachelorarbeit\Experimente\Winsconsin\osweb-version,0,0,0,False,mono,False,18,no,white,no,,no,768,1080,1920,1,1,534453,3.8.6,a47ee561-4ea2-80d4-f47b-548d9201c9ec,osweb,0,number,osweb,,,,4,1,2,3,,osweb,2.1.0,https://jatos.mindprobe.eu,1,1080,1920,1,0,1,1,0,0,1,0,c,yellow,a,space,2,c,triangle,3450,21738,9141,3450,2,osweb,2560,209,2560,209,1053,1920,24,1080,24,2630,236,1920,,,0,0,1717666209566,cross,star,circle,triangle,1024,2,48000,-16,experiment,,1,odd,Linux x86_64,52,89477,92928,77313,70395,93445,38038,59778,89477,89472,89472,93445,Wisconsin Card Sorting Test,2,21421,3,1024
1,0,75,75,5998,5998,#3d3846,Mozilla,Netscape,"5.0 (X11; Linux x86_64) AppleWebKit/537.36 (KHTML, like Gecko) Chrome/124.0.0.0 Safari/537.36",osweb,osweb,0,blue,red,yellow,green,osweb,1,3,1,a,0,3,3,0,0,3,0,0,3,0,0,0,0,0,0,0,3,3,3,3,3,0,0,06-06-24,06-06-24,11:29:11,Thu Jun 06 2024 11:29:11 GMT+0200 (Central European Summer Time),,,The main experiment item,1,False,0,0,C:\Users\maalt\OneDrive - Universität Wien\Dokumente\Uni\Psychologie\8. Semester\Bachelorarbeit\Experimente\Winsconsin\osweb-version,0,0,0,False,mono,False,18,no,white,no,,no,768,1080,1920,1,1,534453,3.8.6,a47ee561-4ea2-80d4-f47b-548d9201c9ec,osweb,0,number,osweb,,,,3,4,1,2,,osweb,2.1.0,https://jatos.mindprobe.eu,1,1080,1920,1,1,0,1,0,0,1,0,a,red,a,space,3,a,circle,2571,21738,9141,2571,2,osweb,2560,209,2560,209,1053,1920,24,1080,24,2630,236,1920,,,0,0,1717666209566,triangle,cross,star,circle,1024,2,48000,-16,experiment,,1,odd,Linux x86_64,52,93460,96045,77313,70395,96562,38038,59778,93460,93455,93455,96562,Wisconsin Card Sorting Test,3,23992,4,1024
1,0,80,80,5573,5573,#3d3846,Mozilla,Netscape,"5.0 (X11; Linux x86_64) AppleWebKit/537.36 (KHTML, like Gecko) Chrome/124.0.0.0 Safari/537.36",osweb,osweb,0,yellow,red,blue,green,osweb,1,4,1,a,0,4,4,0,0,4,0,0,4,0,0,0,0,0,0,0,4,4,4,4,4,0,0,06-06-24,06-06-24,11:29:11,Thu Jun 06 2024 11:29:11 GMT+0200 (Central European Summer Time),,,The main experiment item,1,False,0,0,C:\Users\maalt\OneDrive - Universität Wien\Dokumente\Uni\Psychologie\8. Semester\Bachelorarbeit\Experimente\Winsconsin\osweb-version,0,0,0,False,mono,False,18,no,white,no,,no,768,1080,1920,1,1,534453,3.8.6,a47ee561-4ea2-80d4-f47b-548d9201c9ec,osweb,0,number,osweb,,,,2,4,3,1,,osweb,2.1.0,https://jatos.mindprobe.eu,1,1080,1920,1,1,0,1,0,0,1,0,a,green,a,space,2,a,triangle,3873,21738,9141,3873,2,osweb,2560,209,2560,209,1053,1920,24,1080,24,2630,236,1920,,,0,0,1717666209566,circle,triangle,cross,star,1024,2,48000,-16,experiment,,1,odd,Linux x86_64,52,96582,100462,77313,70395,100978,38038,59778,96582,96575,96575,100978,Wisconsin Card Sorting Test,4,27865,5,1024
1,0,83,83,5184,5184,#3d3846,Mozilla,Netscape,"5.0 (X11; Linux x86_64) AppleWebKit/537.36 (KHTML, like Gecko) Chrome/124.0.0.0 Safari/537.36",osweb,osweb,0,red,green,yellow,blue,osweb,1,0,1,c,0,5,5,0,0,5,0,0,5,0,0,0,0,0,0,0,5,5,5,5,5,0,0,06-06-24,06-06-24,11:29:11,Thu Jun 06 2024 11:29:11 GMT+0200 (Central European Summer Time),,,The main experiment item,1,False,0,0,C:\Users\maalt\OneDrive - Universität Wien\Dokumente\Uni\Psychologie\8. Semester\Bachelorarbeit\Experimente\Winsconsin\osweb-version,0,0,0,False,mono,False,18,no,white,no,,no,768,1080,1920,1,1,534453,3.8.6,a47ee561-4ea2-80d4-f47b-548d9201c9ec,osweb,0,shape,osweb,,,,3,2,1,4,,osweb,2.1.0,https://jatos.mindprobe.eu,1,1080,1920,1,0,1,1,0,0,1,0,c,blue,a,space,1,c,circle,3236,21738,9141,3236,2,osweb,2560,209,2560,209,1053,1920,24,1080,24,2630,236,1920,,,0,0,1717666209566,circle,cross,star,triangle,1024,2,48000,-16,experiment,,1,odd,Linux x86_64,52,100993,104245,77313,70395,104760,38038,59778,100994,100989,100989,104760,Wisconsin Card Sorting Test,5,31101,6,1024
1,0,71,71,4873,4873,#3d3846,Mozilla,Netscape,"5.0 (X11; Linux x86_64) AppleWebKit/537.36 (KHTML, like Gecko) Chrome/124.0.0.0 Safari/537.36",osweb,osweb,0,blue,green,red,yellow,osweb,0,0,0,c,0,6,6,0,0,6,0,0,6,0,0,0,0,0,0,0,6,6,6,6,6,0,0,06-06-24,06-06-24,11:29:11,Thu Jun 06 2024 11:29:11 GMT+0200 (Central European Summer Time),,,The main experiment item,1,False,0,0,C:\Users\maalt\OneDrive - Universität Wien\Dokumente\Uni\Psychologie\8. Semester\Bachelorarbeit\Experimente\Winsconsin\osweb-version,0,0,0,False,mono,False,18,no,white,no,,no,768,1080,1920,1,1,534453,3.8.6,a47ee561-4ea2-80d4-f47b-548d9201c9ec,osweb,0,shape,osweb,,,,4,1,3,2,,osweb,2.1.0,https://jatos.mindprobe.eu,1,1080,1920,0,1,1,1,0,0,1,0,d,green,a,space,2,d,cross,3008,21738,9141,3008,2,osweb,2560,209,2560,209,1053,1920,24,1080,24,2630,236,1920,,,0,0,1717666209566,triangle,star,cross,circle,1024,2,48000,-16,experiment,,1,odd,Linux x86_64,52,104774,104245,107795,70395,108311,38038,59778,104774,104772,104772,108310,Wisconsin Card Sorting Test,5,34109,7,1024
1,0,63,63,4870,4870,#3d3846,Mozilla,Netscape,"5.0 (X11; Linux x86_64) AppleWebKit/537.36 (KHTML, like Gecko) Chrome/124.0.0.0 Safari/537.36",osweb,osweb,0,red,yellow,green,blue,osweb,0,0,0,d,0,7,7,0,0,7,0,0,7,0,0,0,0,0,0,0,7,7,7,7,7,0,0,06-06-24,06-06-24,11:29:11,Thu Jun 06 2024 11:29:11 GMT+0200 (Central European Summer Time),,,The main experiment item,1,False,0,0,C:\Users\maalt\OneDrive - Universität Wien\Dokumente\Uni\Psychologie\8. Semester\Bachelorarbeit\Experimente\Winsconsin\osweb-version,0,0,0,False,mono,False,18,no,white,no,,no,768,1080,1920,1,1,534453,3.8.6,a47ee561-4ea2-80d4-f47b-548d9201c9ec,osweb,0,shape,osweb,,,,4,3,1,2,,osweb,2.1.0,https://jatos.mindprobe.eu,1,1080,1920,1,0,1,1,0,0,1,0,c,green,a,space,4,c,triangle,4848,21738,9141,4848,2,osweb,2560,209,2560,209,1053,1920,24,1080,24,2630,236,1920,,,0,0,1717666209566,circle,cross,star,triangle,1024,2,48000,-16,experiment,,1,odd,Linux x86_64,52,108325,104245,113177,70395,113693,38038,59778,108326,108321,108321,113693,Wisconsin Card Sorting Test,5,38957,8,1024
1,0,67,67,4657,4657,#3d3846,Mozilla,Netscape,"5.0 (X11; Linux x86_64) AppleWebKit/537.36 (KHTML, like Gecko) Chrome/124.0.0.0 Safari/537.36",osweb,osweb,0,blue,yellow,red,green,osweb,1,1,1,a,0,8,8,0,0,8,0,0,8,0,0,0,0,0,0,0,8,8,8,8,8,0,0,06-06-24,06-06-24,11:29:11,Thu Jun 06 2024 11:29:11 GMT+0200 (Central European Summer Time),,,The main experiment item,1,False,0,0,C:\Users\maalt\OneDrive - Universität Wien\Dokumente\Uni\Psychologie\8. Semester\Bachelorarbeit\Experimente\Winsconsin\osweb-version,0,0,0,False,mono,False,18,no,white,no,,no,768,1080,1920,1,1,534453,3.8.6,a47ee561-4ea2-80d4-f47b-548d9201c9ec,osweb,0,shape,osweb,,,,4,3,1,2,,osweb,2.1.0,https://jatos.mindprobe.eu,1,1080,1920,1,0,1,1,0,0,1,0,a,red,a,space,2,a,circle,2952,21738,9141,2952,2,osweb,2560,209,2560,209,1053,1920,24,1080,24,2630,236,1920,,,0,0,1717666209566,circle,cross,star,triangle,1024,2,48000,-16,experiment,,1,odd,Linux x86_64,52,113708,116677,113177,70395,117194,38038,59778,113709,113704,113704,117194,Wisconsin Card Sorting Test,6,41909,9,1024
1,0,70,70,4634,4634,#3d3846,Mozilla,Netscape,"5.0 (X11; Linux x86_64) AppleWebKit/537.36 (KHTML, like Gecko) Chrome/124.0.0.0 Safari/537.36",osweb,osweb,0,green,blue,red,yellow,osweb,1,2,1,d,0,9,9,0,0,9,0,0,9,0,0,0,0,0,0,0,9,9,9,9,9,0,0,06-06-24,06-06-24,11:29:11,Thu Jun 06 2024 11:29:11 GMT+0200 (Central European Summer Time),,,The main experiment item,1,False,0,0,C:\Users\maalt\OneDrive - Universität Wien\Dokumente\Uni\Psychologie\8. Semester\Bachelorarbeit\Experimente\Winsconsin\osweb-version,0,0,0,False,mono,False,18,no,white,no,,no,768,1080,1920,1,1,534453,3.8.6,a47ee561-4ea2-80d4-f47b-548d9201c9ec,osweb,0,shape,osweb,,,,3,2,4,1,,osweb,2.1.0,https://jatos.mindprobe.eu,1,1080,1920,1,0,1,1,0,0,1,0,d,green,a,space,4,d,cross,4427,21738,9141,4427,2,osweb,2560,209,2560,209,1053,1920,24,1080,24,2630,236,1920,,,0,0,1717666209566,star,circle,triangle,cross,1024,2,48000,-16,experiment,,1,odd,Linux x86_64,52,117218,121660,113177,70395,122176,38038,59778,117218,117213,117213,122176,Wisconsin Card Sorting Test,7,46336,10,1024
1,0,73,73,4390,4390,#3d3846,Mozilla,Netscape,"5.0 (X11; Linux x86_64) AppleWebKit/537.36 (KHTML, like Gecko) Chrome/124.0.0.0 Safari/537.36",osweb,osweb,0,yellow,blue,red,green,osweb,1,3,1,d,0,10,10,0,0,10,0,0,10,0,0,0,0,0,0,0,10,10,10,10,10,0,0,06-06-24,06-06-24,11:29:11,Thu Jun 06 2024 11:29:11 GMT+0200 (Central European Summer Time),,,The main experiment item,1,False,0,0,C:\Users\maalt\OneDrive - Universität Wien\Dokumente\Uni\Psychologie\8. Semester\Bachelorarbeit\Experimente\Winsconsin\osweb-version,0,0,0,False,mono,False,18,no,white,no,,no,768,1080,1920,1,1,534453,3.8.6,a47ee561-4ea2-80d4-f47b-548d9201c9ec,osweb,0,shape,osweb,,,,1,3,2,4,,osweb,2.1.0,https://jatos.mindprobe.eu,1,1080,1920,0,1,1,1,0,0,1,0,d,blue,a,space,2,d,triangle,1955,21738,9141,1955,2,osweb,2560,209,2560,209,1053,1920,24,1080,24,2630,236,1920,,,0,0,1717666209566,star,circle,cross,triangle,1024,2,48000,-16,experiment,,1,odd,Linux x86_64,52,122194,124160,113177,70395,124675,38038,59778,122195,122191,122191,124675,Wisconsin Card Sorting Test,8,48291,11,1024
1,0,75,75,4198,4198,#3d3846,Mozilla,Netscape,"5.0 (X11; Linux x86_64) AppleWebKit/537.36 (KHTML, like Gecko) Chrome/124.0.0.0 Safari/537.36",osweb,osweb,0,yellow,blue,green,red,osweb,1,4,1,c,0,11,11,0,0,11,0,0,11,0,0,0,0,0,0,0,11,11,11,11,11,0,0,06-06-24,06-06-24,11:29:11,Thu Jun 06 2024 11:29:11 GMT+0200 (Central European Summer Time),,,The main experiment item,1,False,0,0,C:\Users\maalt\OneDrive - Universität Wien\Dokumente\Uni\Psychologie\8. Semester\Bachelorarbeit\Experimente\Winsconsin\osweb-version,0,0,0,False,mono,False,18,no,white,no,,no,768,1080,1920,1,1,534453,3.8.6,a47ee561-4ea2-80d4-f47b-548d9201c9ec,osweb,0,shape,osweb,,,,1,2,4,3,,osweb,2.1.0,https://jatos.mindprobe.eu,1,1080,1920,1,0,1,1,0,0,1,0,c,yellow,a,space,3,c,triangle,2087,21738,9141,2087,2,osweb,2560,209,2560,209,1053,1920,24,1080,24,2630,236,1920,,,0,0,1717666209566,circle,cross,triangle,star,1024,2,48000,-16,experiment,,1,odd,Linux x86_64,52,124685,126776,113177,70395,127293,38038,59778,124685,124681,124681,127292,Wisconsin Card Sorting Test,9,50378,12,1024
1,0,77,77,4081,4081,#3d3846,Mozilla,Netscape,"5.0 (X11; Linux x86_64) AppleWebKit/537.36 (KHTML, like Gecko) Chrome/124.0.0.0 Safari/537.36",osweb,osweb,0,blue,green,yellow,red,osweb,1,0,1,b,0,12,12,0,0,12,0,0,12,0,0,0,0,0,0,0,12,12,12,12,12,0,0,06-06-24,06-06-24,11:29:11,Thu Jun 06 2024 11:29:11 GMT+0200 (Central European Summer Time),,,The main experiment item,1,False,0,0,C:\Users\maalt\OneDrive - Universität Wien\Dokumente\Uni\Psychologie\8. Semester\Bachelorarbeit\Experimente\Winsconsin\osweb-version,0,0,0,False,mono,False,18,no,white,no,,no,768,1080,1920,1,1,534453,3.8.6,a47ee561-4ea2-80d4-f47b-548d9201c9ec,osweb,0,number,osweb,,,,1,4,3,2,,osweb,2.1.0,https://jatos.mindprobe.eu,1,1080,1920,1,1,1,0,0,0,1,0,b,blue,a,space,3,b,circle,2673,21738,9141,2673,2,osweb,2560,209,2560,209,1053,1920,24,1080,24,2630,236,1920,,,0,0,1717666209566,triangle,circle,star,cross,1024,2,48000,-16,experiment,,1,odd,Linux x86_64,52,127308,129993,113177,70395,130509,38038,59778,127308,127304,127304,130509,Wisconsin Card Sorting Test,10,53051,13,1024
1,0,71,71,3934,3934,#3d3846,Mozilla,Netscape,"5.0 (X11; Linux x86_64) AppleWebKit/537.36 (KHTML, like Gecko) Chrome/124.0.0.0 Safari/537.36",osweb,osweb,0,yellow,red,green,blue,osweb,0,0,0,b,0,13,13,0,0,13,0,0,13,0,0,0,0,0,0,0,13,13,13,13,13,0,0,06-06-24,06-06-24,11:29:11,Thu Jun 06 2024 11:29:11 GMT+0200 (Central European Summer Time),,,The main experiment item,1,False,0,0,C:\Users\maalt\OneDrive - Universität Wien\Dokumente\Uni\Psychologie\8. Semester\Bachelorarbeit\Experimente\Winsconsin\osweb-version,0,0,0,False,mono,False,18,no,white,no,,no,768,1080,1920,1,1,534453,3.8.6,a47ee561-4ea2-80d4-f47b-548d9201c9ec,osweb,0,number,osweb,,,,2,3,4,1,,osweb,2.1.0,https://jatos.mindprobe.eu,1,1080,1920,0,1,1,1,0,0,1,0,c,blue,a,space,3,c,triangle,2029,21738,9141,2029,2,osweb,2560,209,2560,209,1053,1920,24,1080,24,2630,236,1920,,,0,0,1717666209566,cross,circle,triangle,star,1024,2,48000,-16,experiment,,1,odd,Linux x86_64,52,130528,129993,132560,70395,133076,38038,59778,130528,130523,130523,133076,Wisconsin Card Sorting Test,10,55080,14,1024
1,0,67,67,3981,3981,#3d3846,Mozilla,Netscape,"5.0 (X11; Linux x86_64) AppleWebKit/537.36 (KHTML, like Gecko) Chrome/124.0.0.0 Safari/537.36",osweb,osweb,0,yellow,blue,green,red,osweb,0,0,0,c,0,14,14,0,0,14,0,0,14,0,0,0,0,0,0,0,14,14,14,14,14,0,0,06-06-24,06-06-24,11:29:11,Thu Jun 06 2024 11:29:11 GMT+0200 (Central European Summer Time),,,The main experiment item,1,False,0,0,C:\Users\maalt\OneDrive - Universität Wien\Dokumente\Uni\Psychologie\8. Semester\Bachelorarbeit\Experimente\Winsconsin\osweb-version,0,0,0,False,mono,False,18,no,white,no,,no,768,1080,1920,1,1,534453,3.8.6,a47ee561-4ea2-80d4-f47b-548d9201c9ec,osweb,0,number,osweb,,,,3,1,4,2,,osweb,2.1.0,https://jatos.mindprobe.eu,1,1080,1920,0,1,1,1,0,0,1,0,d,red,a,space,4,d,cross,4634,21738,9141,4634,2,osweb,2560,209,2560,209,1053,1920,24,1080,24,2630,236,1920,,,0,0,1717666209566,circle,cross,star,triangle,1024,2,48000,-16,experiment,,1,odd,Linux x86_64,52,133090,129993,137742,70395,138258,38038,59778,133091,133085,133085,138258,Wisconsin Card Sorting Test,10,59714,15,1024
1,0,69,69,3931,3931,#3d3846,Mozilla,Netscape,"5.0 (X11; Linux x86_64) AppleWebKit/537.36 (KHTML, like Gecko) Chrome/124.0.0.0 Safari/537.36",osweb,osweb,0,green,blue,red,yellow,osweb,1,1,1,c,0,15,15,0,0,15,0,0,15,0,0,0,0,0,0,0,15,15,15,15,15,0,0,06-06-24,06-06-24,11:29:11,Thu Jun 06 2024 11:29:11 GMT+0200 (Central European Summer Time),,,The main experiment item,1,False,0,0,C:\Users\maalt\OneDrive - Universität Wien\Dokumente\Uni\Psychologie\8. Semester\Bachelorarbeit\Experimente\Winsconsin\osweb-version,0,0,0,False,mono,False,18,no,white,no,,no,768,1080,1920,1,1,534453,3.8.6,a47ee561-4ea2-80d4-f47b-548d9201c9ec,osweb,0,number,osweb,,,,2,3,1,4,,osweb,2.1.0,https://jatos.mindprobe.eu,1,1080,1920,1,1,1,0,0,0,1,0,c,green,a,space,1,c,circle,3187,21738,9141,3187,2,osweb,2560,209,2560,209,1053,1920,24,1080,24,2630,236,1920,,,0,0,1717666209566,star,circle,triangle,cross,1024,2,48000,-16,experiment,,1,odd,Linux x86_64,52,138273,141475,137742,70395,141991,38038,59778,138273,138269,138269,141991,Wisconsin Card Sorting Test,11,62901,16,1024
1,0,71,71,3853,3853,#3d3846,Mozilla,Netscape,"5.0 (X11; Linux x86_64) AppleWebKit/537.36 (KHTML, like Gecko) Chrome/124.0.0.0 Safari/537.36",osweb,osweb,0,blue,red,green,yellow,osweb,1,2,1,d,0,16,16,0,0,16,0,0,16,0,0,0,0,0,0,0,16,16,16,16,16,0,0,06-06-24,06-06-24,11:29:11,Thu Jun 06 2024 11:29:11 GMT+0200 (Central European Summer Time),,,The main experiment item,1,False,0,0,C:\Users\maalt\OneDrive - Universität Wien\Dokumente\Uni\Psychologie\8. Semester\Bachelorarbeit\Experimente\Winsconsin\osweb-version,0,0,0,False,mono,False,18,no,white,no,,no,768,1080,1920,1,1,534453,3.8.6,a47ee561-4ea2-80d4-f47b-548d9201c9ec,osweb,0,number,osweb,,,,1,3,4,2,,osweb,2.1.0,https://jatos.mindprobe.eu,1,1080,1920,1,0,1,1,0,0,1,0,d,blue,a,space,2,d,circle,2600,21738,9141,2600,2,osweb,2560,209,2560,209,1053,1920,24,1080,24,2630,236,1920,,,0,0,1717666209566,cross,star,circle,triangle,1024,2,48000,-16,experiment,,1,odd,Linux x86_64,52,142012,144626,137742,70395,145142,38038,59778,142013,142010,142011,145142,Wisconsin Card Sorting Test,12,65501,17,1024
1,0,72,72,3763,3763,#3d3846,Mozilla,Netscape,"5.0 (X11; Linux x86_64) AppleWebKit/537.36 (KHTML, like Gecko) Chrome/124.0.0.0 Safari/537.36",osweb,osweb,0,red,green,yellow,blue,osweb,1,3,1,c,0,17,17,0,0,17,0,0,17,0,0,0,0,0,0,0,17,17,17,17,17,0,0,06-06-24,06-06-24,11:29:11,Thu Jun 06 2024 11:29:11 GMT+0200 (Central European Summer Time),,,The main experiment item,1,False,0,0,C:\Users\maalt\OneDrive - Universität Wien\Dokumente\Uni\Psychologie\8. Semester\Bachelorarbeit\Experimente\Winsconsin\osweb-version,0,0,0,False,mono,False,18,no,white,no,,no,768,1080,1920,1,1,534453,3.8.6,a47ee561-4ea2-80d4-f47b-548d9201c9ec,osweb,0,number,osweb,,,,4,3,1,2,,osweb,2.1.0,https://jatos.mindprobe.eu,1,1080,1920,0,1,1,1,0,0,1,0,c,blue,a,space,1,c,circle,2231,21738,9141,2231,2,osweb,2560,209,2560,209,1053,1920,24,1080,24,2630,236,1920,,,0,0,1717666209566,cross,circle,triangle,star,1024,2,48000,-16,experiment,,1,odd,Linux x86_64,52,145158,147391,137742,70395,147908,38038,59778,145158,145154,145154,147908,Wisconsin Card Sorting Test,13,67732,18,1024
1,0,74,74,3695,3695,#3d3846,Mozilla,Netscape,"5.0 (X11; Linux x86_64) AppleWebKit/537.36 (KHTML, like Gecko) Chrome/124.0.0.0 Safari/537.36",osweb,osweb,0,blue,yellow,green,red,osweb,1,4,1,c,0,18,18,0,0,18,0,0,18,0,0,0,0,0,0,0,18,18,18,18,18,0,0,06-06-24,06-06-24,11:29:11,Thu Jun 06 2024 11:29:11 GMT+0200 (Central European Summer Time),,,The main experiment item,1,False,0,0,C:\Users\maalt\OneDrive - Universität Wien\Dokumente\Uni\Psychologie\8. Semester\Bachelorarbeit\Experimente\Winsconsin\osweb-version,0,0,0,False,mono,False,18,no,white,no,,no,768,1080,1920,1,1,534453,3.8.6,a47ee561-4ea2-80d4-f47b-548d9201c9ec,osweb,0,number,osweb,,,,4,3,2,1,,osweb,2.1.0,https://jatos.mindprobe.eu,1,1080,1920,0,1,1,1,0,0,1,0,c,red,a,space,2,c,triangle,2469,21738,9141,2469,2,osweb,2560,209,2560,209,1053,1920,24,1080,24,2630,236,1920,,,0,0,1717666209566,cross,triangle,circle,star,1024,2,48000,-16,experiment,,1,odd,Linux x86_64,52,147919,150391,137742,70395,150908,38038,59778,147919,147917,147917,150907,Wisconsin Card Sorting Test,14,70201,19,1024
1,0,75,75,3651,3651,#3d3846,Mozilla,Netscape,"5.0 (X11; Linux x86_64) AppleWebKit/537.36 (KHTML, like Gecko) Chrome/124.0.0.0 Safari/537.36",osweb,osweb,0,red,yellow,green,blue,osweb,1,0,1,b,0,19,19,0,0,19,0,0,19,0,0,0,0,0,0,0,19,19,19,19,19,0,0,06-06-24,06-06-24,11:29:11,Thu Jun 06 2024 11:29:11 GMT+0200 (Central European Summer Time),,,The main experiment item,1,False,0,0,C:\Users\maalt\OneDrive - Universität Wien\Dokumente\Uni\Psychologie\8. Semester\Bachelorarbeit\Experimente\Winsconsin\osweb-version,0,0,0,False,mono,False,18,no,white,no,,no,768,1080,1920,1,1,534453,3.8.6,a47ee561-4ea2-80d4-f47b-548d9201c9ec,osweb,0,color,osweb,,,,1,2,4,3,,osweb,2.1.0,https://jatos.mindprobe.eu,1,1080,1920,0,1,1,1,0,0,1,0,b,blue,a,space,2,b,cross,2814,21738,9141,2814,2,osweb,2560,209,2560,209,1053,1920,24,1080,24,2630,236,1920,,,0,0,1717666209566,star,circle,cross,triangle,1024,2,48000,-16,experiment,,1,odd,Linux x86_64,52,150918,153741,137742,70395,154258,38038,59778,150918,150917,150917,154257,Wisconsin Card Sorting Test,15,73015,20,1024
1,0,71,71,3600,3600,#3d3846,Mozilla,Netscape,"5.0 (X11; Linux x86_64) AppleWebKit/537.36 (KHTML, like Gecko) Chrome/124.0.0.0 Safari/537.36",osweb,osweb,0,blue,yellow,green,red,osweb,0,0,0,b,0,20,20,0,0,20,0,0,20,0,0,0,0,0,0,0,20,20,20,20,20,0,0,06-06-24,06-06-24,11:29:11,Thu Jun 06 2024 11:29:11 GMT+0200 (Central European Summer Time),,,The main experiment item,1,False,0,0,C:\Users\maalt\OneDrive - Universität Wien\Dokumente\Uni\Psychologie\8. Semester\Bachelorarbeit\Experimente\Winsconsin\osweb-version,0,0,0,False,mono,False,18,no,white,no,,no,768,1080,1920,1,1,534453,3.8.6,a47ee561-4ea2-80d4-f47b-548d9201c9ec,osweb,0,color,osweb,,,,2,4,1,3,,osweb,2.1.0,https://jatos.mindprobe.eu,1,1080,1920,1,1,1,0,0,0,1,0,a,yellow,a,space,2,a,triangle,2593,21738,9141,2593,2,osweb,2560,209,2560,209,1053,1920,24,1080,24,2630,236,1920,,,0,0,1717666209566,circle,star,triangle,cross,1024,2,48000,-16,experiment,,1,odd,Linux x86_64,52,154275,153741,156875,70395,157390,38038,59778,154275,154271,154271,157390,Wisconsin Card Sorting Test,15,75608,21,1024
1,0,68,68,3545,3545,#3d3846,Mozilla,Netscape,"5.0 (X11; Linux x86_64) AppleWebKit/537.36 (KHTML, like Gecko) Chrome/124.0.0.0 Safari/537.36",osweb,osweb,0,green,yellow,red,blue,osweb,0,0,0,d,0,21,21,0,0,21,0,0,21,0,0,0,0,0,0,0,21,21,21,21,21,0,0,06-06-24,06-06-24,11:29:11,Thu Jun 06 2024 11:29:11 GMT+0200 (Central European Summer Time),,,The main experiment item,1,False,0,0,C:\Users\maalt\OneDrive - Universität Wien\Dokumente\Uni\Psychologie\8. Semester\Bachelorarbeit\Experimente\Winsconsin\osweb-version,0,0,0,False,mono,False,18,no,white,no,,no,768,1080,1920,1,1,534453,3.8.6,a47ee561-4ea2-80d4-f47b-548d9201c9ec,osweb,0,color,osweb,,,,1,2,3,4,,osweb,2.1.0,https://jatos.mindprobe.eu,1,1080,1920,1,1,0,1,0,0,1,0,b,blue,a,space,1,b,cross,2380,21738,9141,2380,2,osweb,2560,209,2560,209,1053,1920,24,1080,24,2630,236,1920,,,0,0,1717666209566,triangle,cross,star,circle,1024,2,48000,-16,experiment,,1,odd,Linux x86_64,52,157400,153741,159790,70395,160306,38038,59778,157400,157400,157400,160306,Wisconsin Card Sorting Test,15,77988,22,1024
1,0,70,70,3473,3473,#3d3846,Mozilla,Netscape,"5.0 (X11; Linux x86_64) AppleWebKit/537.36 (KHTML, like Gecko) Chrome/124.0.0.0 Safari/537.36",osweb,osweb,0,red,yellow,green,blue,osweb,1,1,1,a,0,22,22,0,0,22,0,0,22,0,0,0,0,0,0,0,22,22,22,22,22,0,0,06-06-24,06-06-24,11:29:11,Thu Jun 06 2024 11:29:11 GMT+0200 (Central European Summer Time),,,The main experiment item,1,False,0,0,C:\Users\maalt\OneDrive - Universität Wien\Dokumente\Uni\Psychologie\8. Semester\Bachelorarbeit\Experimente\Winsconsin\osweb-version,0,0,0,False,mono,False,18,no,white,no,,no,768,1080,1920,1,1,534453,3.8.6,a47ee561-4ea2-80d4-f47b-548d9201c9ec,osweb,0,color,osweb,,,,4,1,3,2,,osweb,2.1.0,https://jatos.mindprobe.eu,1,1080,1920,1,0,1,1,0,0,1,0,a,red,a,space,3,a,cross,1892,21738,9141,1892,2,osweb,2560,209,2560,209,1053,1920,24,1080,24,2630,236,1920,,,0,0,1717666209566,star,triangle,circle,cross,1024,2,48000,-16,experiment,,1,odd,Linux x86_64,52,160328,162224,159790,70395,162741,38038,59778,160328,160326,160326,162740,Wisconsin Card Sorting Test,16,79880,23,1024
1,0,71,71,3390,3390,#3d3846,Mozilla,Netscape,"5.0 (X11; Linux x86_64) AppleWebKit/537.36 (KHTML, like Gecko) Chrome/124.0.0.0 Safari/537.36",osweb,osweb,0,blue,green,yellow,red,osweb,1,2,1,a,0,23,23,0,0,23,0,0,23,0,0,0,0,0,0,0,23,23,23,23,23,0,0,06-06-24,06-06-24,11:29:11,Thu Jun 06 2024 11:29:11 GMT+0200 (Central European Summer Time),,,The main experiment item,1,False,0,0,C:\Users\maalt\OneDrive - Universität Wien\Dokumente\Uni\Psychologie\8. Semester\Bachelorarbeit\Experimente\Winsconsin\osweb-version,0,0,0,False,mono,False,18,no,white,no,,no,768,1080,1920,1,1,534453,3.8.6,a47ee561-4ea2-80d4-f47b-548d9201c9ec,osweb,0,color,osweb,,,,2,4,3,1,,osweb,2.1.0,https://jatos.mindprobe.eu,1,1080,1920,1,0,1,1,0,0,1,0,a,blue,a,space,3,a,star,1489,21738,9141,1489,2,osweb,2560,209,2560,209,1053,1920,24,1080,24,2630,236,1920,,,0,0,1717666209566,triangle,circle,cross,star,1024,2,48000,-16,experiment,,1,odd,Linux x86_64,52,162755,164257,159790,70395,164774,38038,59778,162755,162751,162751,164773,Wisconsin Card Sorting Test,17,81369,24,1024
1,0,72,72,3312,3312,#3d3846,Mozilla,Netscape,"5.0 (X11; Linux x86_64) AppleWebKit/537.36 (KHTML, like Gecko) Chrome/124.0.0.0 Safari/537.36",osweb,osweb,0,yellow,green,red,blue,osweb,1,3,1,a,0,24,24,0,0,24,0,0,24,0,0,0,0,0,0,0,24,24,24,24,24,0,0,06-06-24,06-06-24,11:29:11,Thu Jun 06 2024 11:29:11 GMT+0200 (Central European Summer Time),,,The main experiment item,1,False,0,0,C:\Users\maalt\OneDrive - Universität Wien\Dokumente\Uni\Psychologie\8. Semester\Bachelorarbeit\Experimente\Winsconsin\osweb-version,0,0,0,False,mono,False,18,no,white,no,,no,768,1080,1920,1,1,534453,3.8.6,a47ee561-4ea2-80d4-f47b-548d9201c9ec,osweb,0,color,osweb,,,,3,2,1,4,,osweb,2.1.0,https://jatos.mindprobe.eu,1,1080,1920,1,1,0,1,0,0,1,0,a,yellow,a,space,4,a,star,1430,21738,9141,1430,2,osweb,2560,209,2560,209,1053,1920,24,1080,24,2630,236,1920,,,0,0,1717666209566,cross,star,triangle,circle,1024,2,48000,-16,experiment,,1,odd,Linux x86_64,52,164782,166224,159790,70395,166740,38038,59778,164782,164781,164781,166740,Wisconsin Card Sorting Test,18,82799,25,1024
1,0,73,73,3291,3291,#3d3846,Mozilla,Netscape,"5.0 (X11; Linux x86_64) AppleWebKit/537.36 (KHTML, like Gecko) Chrome/124.0.0.0 Safari/537.36",osweb,osweb,0,yellow,blue,red,green,osweb,1,4,1,b,0,25,25,0,0,25,0,0,25,0,0,0,0,0,0,0,25,25,25,25,25,0,0,06-06-24,06-06-24,11:29:11,Thu Jun 06 2024 11:29:11 GMT+0200 (Central European Summer Time),,,The main experiment item,1,False,0,0,C:\Users\maalt\OneDrive - Universität Wien\Dokumente\Uni\Psychologie\8. Semester\Bachelorarbeit\Experimente\Winsconsin\osweb-version,0,0,0,False,mono,False,18,no,white,no,,no,768,1080,1920,1,1,534453,3.8.6,a47ee561-4ea2-80d4-f47b-548d9201c9ec,osweb,0,color,osweb,,,,4,2,1,3,,osweb,2.1.0,https://jatos.mindprobe.eu,1,1080,1920,1,1,0,1,0,0,1,0,b,blue,a,space,3,b,triangle,2754,21738,9141,2754,2,osweb,2560,209,2560,209,1053,1920,24,1080,24,2630,236,1920,,,0,0,1717666209566,triangle,circle,cross,star,1024,2,48000,-16,experiment,,1,odd,Linux x86_64,52,166753,169524,159790,70395,170040,38038,59778,166753,166749,166749,170040,Wisconsin Card Sorting Test,19,85553,26,1024
1,0,74,74,3243,3243,#3d3846,Mozilla,Netscape,"5.0 (X11; Linux x86_64) AppleWebKit/537.36 (KHTML, like Gecko) Chrome/124.0.0.0 Safari/537.36",osweb,osweb,0,yellow,blue,red,green,osweb,1,0,1,d,0,26,26,0,0,26,0,0,26,0,0,0,0,0,0,0,26,26,26,26,26,0,0,06-06-24,06-06-24,11:29:11,Thu Jun 06 2024 11:29:11 GMT+0200 (Central European Summer Time),,,The main experiment item,1,False,0,0,C:\Users\maalt\OneDrive - Universität Wien\Dokumente\Uni\Psychologie\8. Semester\Bachelorarbeit\Experimente\Winsconsin\osweb-version,0,0,0,False,mono,False,18,no,white,no,,no,768,1080,1920,1,1,534453,3.8.6,a47ee561-4ea2-80d4-f47b-548d9201c9ec,osweb,0,shape,osweb,,,,2,4,3,1,,osweb,2.1.0,https://jatos.mindprobe.eu,1,1080,1920,0,1,1,1,0,0,1,0,d,green,a,space,3,d,circle,2010,21738,9141,2010,2,osweb,2560,209,2560,209,1053,1920,24,1080,24,2630,236,1920,,,0,0,1717666209566,cross,circle,star,triangle,1024,2,48000,-16,experiment,,1,odd,Linux x86_64,52,170049,172073,159790,70395,172590,38038,59778,170049,170048,170048,172589,Wisconsin Card Sorting Test,20,87563,27,1024
1,0,71,71,3176,3176,#3d3846,Mozilla,Netscape,"5.0 (X11; Linux x86_64) AppleWebKit/537.36 (KHTML, like Gecko) Chrome/124.0.0.0 Safari/537.36",osweb,osweb,0,green,yellow,blue,red,osweb,0,0,0,a,0,27,27,0,0,27,0,0,27,0,0,0,0,0,0,0,27,27,27,27,27,0,0,06-06-24,06-06-24,11:29:11,Thu Jun 06 2024 11:29:11 GMT+0200 (Central European Summer Time),,,The main experiment item,1,False,0,0,C:\Users\maalt\OneDrive - Universität Wien\Dokumente\Uni\Psychologie\8. Semester\Bachelorarbeit\Experimente\Winsconsin\osweb-version,0,0,0,False,mono,False,18,no,white,no,,no,768,1080,1920,1,1,534453,3.8.6,a47ee561-4ea2-80d4-f47b-548d9201c9ec,osweb,0,shape,osweb,,,,1,4,3,2,,osweb,2.1.0,https://jatos.mindprobe.eu,1,1080,1920,1,0,1,1,0,0,1,0,d,red,a,space,3,d,star,1370,21738,9141,1370,2,osweb,2560,209,2560,209,1053,1920,24,1080,24,2630,236,1920,,,0,0,1717666209566,star,cross,circle,triangle,1024,2,48000,-16,experiment,,1,odd,Linux x86_64,52,172602,172073,173973,70395,174489,38038,59778,172602,172600,172600,174489,Wisconsin Card Sorting Test,20,88933,28,1024
1,0,72,72,3185,3185,#3d3846,Mozilla,Netscape,"5.0 (X11; Linux x86_64) AppleWebKit/537.36 (KHTML, like Gecko) Chrome/124.0.0.0 Safari/537.36",osweb,osweb,0,blue,green,yellow,red,osweb,1,1,1,d,0,28,28,0,0,28,0,0,28,0,0,0,0,0,0,0,28,28,28,28,28,0,0,06-06-24,06-06-24,11:29:11,Thu Jun 06 2024 11:29:11 GMT+0200 (Central European Summer Time),,,The main experiment item,1,False,0,0,C:\Users\maalt\OneDrive - Universität Wien\Dokumente\Uni\Psychologie\8. Semester\Bachelorarbeit\Experimente\Winsconsin\osweb-version,0,0,0,False,mono,False,18,no,white,no,,no,768,1080,1920,1,1,534453,3.8.6,a47ee561-4ea2-80d4-f47b-548d9201c9ec,osweb,0,shape,osweb,,,,2,4,3,1,,osweb,2.1.0,https://jatos.mindprobe.eu,1,1080,1920,0,1,1,1,0,0,1,0,d,green,a,space,3,d,triangle,3429,21738,9141,3429,2,osweb,2560,209,2560,209,1053,1920,24,1080,24,2630,236,1920,,,0,0,1717666209566,cross,star,circle,triangle,1024,2,48000,-16,experiment,,1,odd,Linux x86_64,52,174502,177939,173973,70395,178456,38038,59778,174502,174501,174501,178456,Wisconsin Card Sorting Test,21,92362,29,1024
